sequence,AccelerometerX,AccelerometerY,AccelerometerZ,GyroscopeX,GyroscopeY,GyroscopeZ
0,1179,1129,16348,-395,-130,-5
1,719,119,16697,-314,-124,40
2,68,1439,16165,116,-111,89
3,545,2298,15929,-47,-107,43
4,989,898,16404,-421,-147,-1
5,484,161,16581,-234,-104,52
6,108,1648,16208,136,-103,51
7,689,2278,15951,-123,-140,-6
8,1057,656,16494,-472,-160,-28
9,402,344,16548,-188,-105,53
10,216,1862,16026,112,-85,78
11,909,2127,16096,-184,-146,-2
12,1104,467,16492,-444,-160,-7
13,304,449,16493,-107,-111,59
14,182,2070,16000,126,-106,62
15,957,1902,16101,-252,-145,16
16,915,346,16591,-421,-143,2
17,179,642,16425,-53,-80,47
18,163,2125,16007,74,-98,44
19,1054,1549,16221,-335,-183,-10
20,952,178,16657,-368,-149,13
21,176,1080,16289,34,-98,58
22,414,2414,15900,24,-150,31
23,915,1319,16251,-402,-177,-18
24,679,131,16605,-320,-121,15
25,123,1200,16366,84,-67,48
26,603,2247,15989,-19,-129,12
27,1223,1005,16447,-395,-188,4
28,616,252,16574,-228,-146,49
29,120,1520,16096,109,-130,61
30,685,2129,16105,-86,-137,4
31,1026,649,16494,-437,-142,0
32,429,370,16575,-165,-89,73
33,82,2066,16054,159,-57,70
34,823,2088,16044,-181,-161,2
35,1019,642,16556,-459,-164,-25
36,264,344,16508,-144,-108,43
37,19,1984,16042,148,-113,47
38,770,1867,16107,-212,-151,11
39,1057,366,16593,-439,-158,14
40,353,610,16475,-68,-124,51
41,410,2161,15938,98,-116,38
42,1016,1786,16145,-275,-150,-2
43,913,247,16585,-391,-118,15
44,212,784,16389,15,-82,86
45,355,2213,16009,79,-109,61
46,947,1477,16212,-325,-163,-6
47,562,243,16552,-359,-129,16
48,-1,1062,16259,53,-87,56
49,431,2255,16039,2,-118,9
50,1089,1148,16348,-406,-149,-27
51,715,211,16620,-293,-127,18
52,193,1378,16186,104,-84,62
53,810,2136,16050,-51,-129,31
54,1278,980,16456,-370,-146,-11
55,514,312,16513,-212,-120,64
56,-93,1649,16159,95,-90,62
57,459,2048,16055,-111,-133,-16
58,943,797,16430,-404,-156,-11
59,361,467,16540,-194,-108,39
60,225,1888,16064,67,-105,57
61,991,1920,16065,-220,-162,-14
62,1151,504,16492,-405,-138,1
63,474,614,16423,-101,-102,84
64,272,1934,16144,71,-120,72
65,889,1615,16176,-260,-177,-10
66,674,332,16528,-372,-151,41
67,55,931,16312,9,-75,82
68,321,2226,15980,66,-120,36
69,1037,1515,16284,-360,-178,-23
70,803,261,16548,-337,-150,16
71,121,1163,16297,61,-86,65
72,556,2246,15970,9,-101,32
73,1244,1194,16349,-401,-153,-1
74,769,171,16587,-296,-108,32
75,69,1451,16188,119,-93,67
76,462,2179,15959,-38,-123,26
77,1061,974,16387,-409,-141,-2
78,486,259,16612,-254,-142,40
79,54,1695,16083,95,-127,55
80,705,2193,16048,-116,-137,24
81,1037,727,16498,-415,-134,-2
82,472,388,16478,-190,-83,75
83,174,1802,16190,97,-111,67
84,815,1982,16037,-172,-177,2
85,938,385,16549,-436,-144,-3
86,249,520,16435,-70,-69,80
87,314,2003,16061,109,-118,52
88,1098,1796,16238,-254,-145,-8
89,1015,437,16527,-394,-108,5
90,183,778,16391,-24,-92,66
91,222,2162,15997,71,-90,59
92,1023,1526,16239,-332,-147,-8
93,753,302,16555,-340,-161,23
94,86,1087,16277,19,-79,71
95,400,2240,15989,-4,-134,34
96,1086,1295,16310,-368,-165,-8
97,776,254,16618,-325,-115,21
98,134,1357,16233,48,-91,69
99,630,2182,15994,-58,-137,21
100,1025,949,16437,-390,-147,-5
101,547,320,16542,-238,-93,40
102,96,1564,16185,87,-84,78
103,663,2190,16075,-135,-165,13
104,942,706,16519,-436,-144,-15
105,298,421,16460,-187,-98,50
106,170,1815,16073,89,-123,36
107,962,1927,16181,-167,-151,-5
108,1164,579,16512,-398,-146,14
109,394,558,16494,-98,-94,61
110,141,2069,15993,102,-78,57
111,946,1744,16163,-234,-148,-3
112,868,353,16619,-381,-155,4
113,116,787,16323,-29,-119,68
114,206,2191,15980,64,-144,36
115,966,1544,16243,-311,-157,-7
116,920,237,16577,-381,-123,30
117,207,1069,16363,11,-87,57
118,515,2250,15943,-4,-135,38
119,1070,1201,16291,-383,-152,-3
120,693,161,16622,-323,-100,27
121,149,1240,16260,88,-90,56
122,593,2268,15994,-42,-148,28
123,1086,959,16438,-413,-165,-8
124,457,255,16583,-261,-102,43
125,65,1604,16146,106,-82,72
126,743,2159,16093,-102,-133,-1
127,1119,764,16449,-441,-144,-8
128,457,389,16535,-184,-103,72
129,90,1870,15989,96,-94,62
130,892,1960,16071,-202,-157,28
131,1062,572,16535,-430,-163,4
132,291,517,16487,-132,-82,62
133,108,2035,16020,84,-109,56
134,816,1784,16115,-248,-173,-13
135,1028,292,16585,-414,-154,11
136,281,766,16501,-31,-83,59
137,341,2228,15957,71,-105,40
138,985,1665,16218,-298,-168,0
139,779,121,16587,-376,-152,19
140,177,943,16315,-6,-117,72
141,418,2331,16040,26,-120,36
142,1062,1275,16292,-370,-167,-5
143,675,149,16652,-333,-122,36
144,145,1263,16285,97,-96,71
145,660,2336,16016,-4,-116,20
146,1149,1068,16426,-443,-135,-20
147,615,154,16592,-277,-118,37
148,6,1587,16115,116,-103,69
149,685,2224,16041,-111,-142,19
150,1152,787,16492,-440,-155,-10
151,465,246,16537,-195,-106,41
152,103,1905,16071,123,-125,92
153,713,2033,16026,-173,-184,17
154,1090,438,16587,-470,-153,10
155,395,386,16569,-89,-131,74
156,202,2094,15979,156,-125,72
157,865,2007,16082,-239,-165,-7
158,849,281,16560,-440,-151,-19
159,192,584,16426,-35,-88,63
160,304,2246,16044,95,-105,64
161,1026,1715,16137,-299,-150,-18
162,820,172,16662,-406,-150,4
163,129,832,16358,20,-91,63
164,485,2293,15941,39,-122,35
165,1183,1477,16291,-381,-164,-14
166,783,165,16522,-365,-129,35
167,59,1171,16250,53,-104,76
168,450,2318,15984,-5,-105,37
169,1140,1200,16338,-405,-125,-8
170,645,113,16650,-278,-113,22
171,102,1535,16165,93,-114,74
172,590,2231,15960,-87,-155,17
173,1105,842,16452,-435,-142,-6
174,578,212,16584,-233,-96,51
175,190,1726,16111,114,-122,62
176,803,2168,15996,-130,-175,3
177,982,580,16495,-437,-167,-9
178,330,391,16528,-133,-94,53
179,230,1919,16094,117,-106,68
180,859,2008,16051,-206,-164,-10
181,949,413,16564,-444,-155,2
182,165,618,16451,-92,-95,70
183,279,2104,15945,93,-133,53
184,1061,1736,16204,-295,-166,-6
185,942,292,16549,-397,-149,-6
186,129,858,16366,12,-100,62
187,279,2243,15947,101,-105,35
188,1136,1480,16248,-323,-153,-11
189,825,163,16648,-370,-153,18
190,64,1174,16203,61,-96,83
191,340,2293,15932,28,-118,46
192,1036,1179,16327,-407,-165,-19
193,688,175,16612,-315,-107,34
194,85,1423,16249,91,-96,70
195,609,2297,15974,-74,-147,2
196,1028,877,16443,-428,-154,-17
197,490,210,16574,-255,-108,46
198,128,1616,16139,104,-92,63
199,765,2208,16046,-138,-154,-4
200,1065,654,16478,-431,-159,9
201,337,335,16515,-150,-102,68
202,128,1920,16045,105,-89,71
203,909,2016,16097,-197,-146,9
204,1006,519,16483,-446,-152,-16
205,272,559,16441,-107,-106,64
206,164,2095,15971,117,-86,81
207,1005,1813,16164,-288,-136,-12
208,963,251,16619,-422,-157,-11
209,237,769,16356,-22,-123,83
210,276,2163,16009,74,-100,59
211,940,1525,16232,-310,-146,-13
212,859,213,16561,-356,-122,36
213,161,1012,16396,28,-112,59
214,422,2296,15934,20,-142,48
215,985,1282,16293,-354,-159,-13
216,600,198,16575,-318,-129,29
217,94,1222,16241,83,-110,62
218,596,2337,16052,-10,-130,22
219,1105,979,16369,-406,-169,-19
220,508,235,16618,-251,-134,46
221,66,1537,16101,91,-91,77
222,742,2171,16045,-83,-135,13
223,1110,829,16490,-417,-150,-17
224,445,360,16482,-173,-96,48
225,43,1813,16043,119,-73,79
226,806,2024,16085,-165,-144,17
227,1127,584,16525,-431,-159,-9
228,339,483,16486,-144,-103,43
229,206,1965,16065,109,-115,38
230,853,1838,16106,-236,-146,-18
231,957,341,16538,-469,-136,-3
232,271,708,16448,-49,-82,74
233,330,2106,16000,81,-99,49
234,1003,1667,16222,-287,-165,-10
235,744,321,16562,-372,-164,22
236,178,893,16299,-5,-78,86
237,443,2158,16072,37,-105,50
238,1059,1349,16230,-321,-170,-9
239,681,250,16623,-320,-146,26
240,28,1246,16226,41,-107,63
241,588,2202,15949,-19,-129,13
242,1208,1096,16453,-392,-161,-13
243,616,223,16593,-269,-112,43
244,7,1531,16135,84,-99,68
245,638,2090,16049,-84,-145,19
246,1152,861,16447,-390,-150,3
247,428,388,16535,-211,-112,76
248,87,1775,16085,105,-132,62
249,665,1968,16076,-134,-177,16
250,979,577,16462,-432,-133,-6
251,381,483,16492,-140,-103,62
252,207,1932,16082,84,-101,42
253,923,1907,16098,-212,-145,-13
254,913,410,16558,-430,-139,1
255,224,657,16402,-80,-80,56
256,336,2059,16055,93,-111,54
257,1024,1688,16170,-272,-179,-11
258,842,351,16543,-371,-160,17
259,47,974,16297,-29,-101,86
260,424,2123,15982,28,-115,41
261,1120,1402,16316,-348,-155,-20
262,711,257,16527,-326,-122,14
263,79,1252,16222,43,-122,50
264,474,2146,15993,-26,-137,40
265,1168,1136,16354,-386,-164,-4
266,699,242,16616,-276,-143,43
267,122,1602,16078,113,-107,79
268,559,2102,16035,-108,-146,19
269,997,775,16462,-434,-175,-9
270,509,381,16494,-227,-107,65
271,133,1722,16168,100,-101,53
272,792,2107,15999,-145,-167,-4
273,1020,567,16465,-427,-151,-8
274,371,396,16446,-140,-97,56
275,241,1905,16061,111,-108,70
276,967,1941,16114,-210,-176,-8
277,996,473,16516,-429,-152,-1
278,161,641,16425,-109,-86,73
279,255,2050,16020,44,-115,63
280,1084,1677,16208,-288,-176,0
281,839,344,16584,-382,-149,18
282,155,930,16344,-39,-95,69
283,312,2147,16001,36,-115,28
284,1068,1414,16265,-344,-164,-28
285,784,239,16604,-350,-146,30
286,104,1216,16254,39,-101,56
287,466,2191,16019,-5,-128,11
288,1053,1081,16408,-363,-144,-10
289,650,266,16573,-269,-149,34
290,114,1441,16257,61,-122,66
291,644,2224,15944,-92,-141,28
292,1080,785,16521,-431,-177,-6
293,444,372,16549,-196,-89,44
294,125,1707,16134,119,-90,66
295,809,2109,16146,-153,-177,12
296,1062,653,16477,-438,-159,2
297,326,434,16483,-140,-96,54
298,155,1943,16039,113,-110,71
299,909,1876,16149,-229,-138,1
300,1011,405,16594,-418,-156,11
301,272,653,16412,-68,-106,67
302,129,2165,15966,120,-94,67
303,954,1698,16201,-281,-157,14
304,941,213,16597,-397,-152,8
305,173,933,16336,27,-97,84
306,323,2218,15976,58,-104,71
307,952,1460,16244,-345,-149,-7
308,799,130,16610,-359,-115,31
309,206,1092,16351,54,-94,58
310,494,2339,15987,6,-116,38
311,1074,1174,16319,-398,-161,-8
312,620,228,16577,-320,-100,27
313,117,1339,16206,94,-93,69
314,645,2311,16041,-58,-153,17
315,1124,920,16396,-433,-171,-7
316,469,268,16582,-219,-129,26
317,21,1689,16088,123,-114,65
318,761,2142,15987,-142,-154,6
319,1078,717,16535,-438,-165,-6
320,391,371,16484,-169,-100,54
321,105,1912,16051,105,-121,84
322,828,1919,16133,-198,-171,23
323,1120,470,16564,-397,-159,3
324,280,612,16474,-101,-87,61
325,213,2079,16006,73,-113,58
326,830,1760,16158,-272,-152,-11
327,936,237,16612,-409,-133,19
328,274,853,16399,-20,-95,79
329,337,2246,16002,56,-105,61
330,1066,1515,16231,-328,-164,-7
331,735,198,16563,-362,-145,16
332,150,987,16250,36,-108,57
333,507,2299,16047,18,-117,13
334,1086,1257,16302,-413,-167,-26
335,670,160,16628,-305,-127,26
336,65,1328,16207,96,-96,96
337,607,2316,15971,-34,-126,37
338,1165,996,16411,-444,-152,-14
339,560,139,16606,-237,-114,40
340,72,1694,16147,122,-80,67
341,646,2140,15988,-128,-135,22
342,1100,699,16507,-454,-175,-20
343,471,269,16586,-183,-88,35
344,121,1884,16034,154,-109,82
345,739,2105,16021,-172,-150,15
346,1005,455,16582,-458,-170,-18
347,378,436,16477,-139,-99,44
348,264,2095,16011,127,-100,57
349,939,1967,16088,-225,-165,1
350,915,288,16586,-433,-134,21
351,231,622,16408,-42,-89,73
352,342,2208,15985,106,-115,74
353,1041,1643,16214,-305,-162,-12
354,860,181,16619,-409,-115,-19
355,83,954,16346,21,-86,67
356,380,2303,15944,51,-129,39
357,1152,1389,16326,-371,-160,-19
358,727,145,16577,-339,-127,44
359,93,1245,16265,72,-120,72
360,438,2330,15909,-11,-136,38
361,1131,1089,16356,-415,-140,-8
362,666,133,16677,-294,-121,49
363,59,1496,16145,133,-91,71
364,598,2307,15957,-53,-145,20
365,1062,802,16429,-448,-126,-17
366,490,159,16591,-218,-97,24
367,156,1713,16151,139,-117,35
368,759,2233,15956,-114,-158,-9
369,999,609,16521,-464,-149,-18
370,317,342,16497,-161,-89,60
371,196,1969,15970,107,-89,60
372,889,1998,16128,-205,-161,-21
373,986,393,16538,-418,-158,-13
374,220,546,16469,-77,-99,58
375,220,2113,16030,107,-79,53
376,1046,1797,16163,-296,-133,-17
377,896,283,16612,-413,-158,20
378,177,853,16335,-9,-104,66
379,269,2236,15926,84,-123,35
380,1053,1487,16294,-316,-180,-31
381,834,177,16679,-359,-144,3
382,109,1078,16265,11,-88,59
383,450,2301,15933,0,-107,29
384,975,1218,16311,-397,-148,-10
385,680,132,16595,-319,-118,37
386,111,1306,16295,84,-82,57
387,624,2363,15933,-35,-137,2
388,1082,939,16426,-412,-173,-14
389,509,188,16558,-249,-115,55
390,146,1561,16118,127,-61,74
391,816,2202,16083,-112,-106,4
392,1071,715,16415,-423,-162,14
393,359,297,16524,-166,-107,52
394,125,1888,16072,113,-88,61
395,890,2030,16097,-171,-166,6
396,1059,522,16557,-419,-143,-14
397,348,545,16432,-103,-104,57
398,129,2051,15984,106,-92,66
399,870,1804,16170,-252,-154,-24
400,998,329,16591,-406,-154,11
401,194,765,16424,-54,-77,72
402,321,2200,15989,58,-114,47
403,960,1583,16226,-311,-155,-13
404,811,162,16616,-395,-103,12
405,173,970,16358,17,-75,71
406,452,2334,15987,27,-116,33
407,1106,1342,16289,-355,-161,-25
408,643,184,16537,-326,-114,47
409,106,1203,16241,61,-115,87
410,602,2306,16013,-14,-155,33
411,1106,1037,16372,-409,-155,-3
412,593,190,16608,-260,-128,40
413,-5,1518,16170,96,-108,66
414,710,2212,16019,-90,-131,12
415,1119,814,16526,-453,-119,3
416,453,262,16494,-214,-111,60
417,114,1857,16061,102,-107,70
418,767,2072,16017,-164,-159,21
419,1081,532,16526,-480,-159,16
420,365,453,16521,-133,-106,52
421,185,2023,15970,124,-111,29
422,850,1906,16082,-226,-172,13
423,876,333,16593,-439,-146,21
424,287,694,16417,-64,-84,79
425,314,2178,16055,70,-103,59
426,992,1704,16152,-298,-185,-4
427,769,213,16602,-391,-145,21
428,160,928,16333,16,-107,76
429,461,2240,15997,50,-134,57
430,1084,1423,16284,-373,-151,-22
431,704,180,16625,-360,-136,12
432,1,1236,16206,50,-104,79
433,500,2250,15972,-28,-126,45
434,1206,1158,16407,-406,-150,-13
435,627,217,16593,-271,-122,32
436,74,1509,16176,89,-110,68
437,605,2183,15996,-72,-143,13
438,1153,865,16442,-414,-153,-1
439,515,264,16611,-202,-113,64
440,114,1797,16096,109,-105,58
441,676,2138,16031,-164,-152,1
442,999,591,16504,-448,-159,-12
443,371,391,16472,-147,-112,51
444,206,1942,16175,120,-102,79
445,939,1970,16021,-224,-159,-14
446,967,420,16538,-434,-167,-14
447,212,608,16434,-65,-109,61
448,278,2071,15985,83,-107,51
449,1015,1783,16193,-287,-162,7
450,915,285,16539,-416,-121,17
451,84,883,16351,-6,-85,69
452,344,2233,15985,82,-107,34
453,1132,1452,16252,-306,-163,-11
454,783,263,16596,-343,-141,44
455,108,1221,16274,42,-81,77
456,444,2236,15927,19,-132,40
457,1123,1155,16325,-392,-169,-26
458,668,163,16654,-313,-114,38
459,63,1397,16215,88,-107,75
460,611,2273,15984,-51,-121,31
461,1023,838,16448,-430,-147,-7
462,512,252,16509,-236,-106,55
463,132,1683,16179,106,-112,69
464,777,2172,16066,-151,-135,9
465,1026,680,16495,-428,-144,6
466,271,436,16459,-170,-97,55
467,170,1817,16053,63,-100,45
468,951,1949,16129,-212,-147,0
469,1040,504,16486,-401,-152,-4
470,252,656,16422,-84,-91,55
471,198,2058,16030,86,-106,50
472,1056,1749,16206,-247,-166,-1
473,957,299,16646,-415,-124,8
474,175,945,16309,-20,-105,73
475,283,2108,15968,31,-125,42
476,1009,1336,16284,-353,-159,-10
477,813,98,16659,-376,-118,21
478,62,1150,16291,57,-92,85
479,435,2316,15911,13,-124,34
480,959,1130,16308,-368,-169,-8
481,639,220,16568,-248,-117,45
482,137,1424,16229,97,-123,59
483,727,2313,15983,-95,-171,28
484,1185,892,16452,-428,-179,-10
485,503,214,16560,-220,-103,51
486,157,1631,16142,130,-71,77
487,845,2134,16100,-101,-147,14
488,1050,711,16452,-415,-165,-11
489,313,402,16491,-142,-91,80
490,31,1980,16023,128,-105,104
491,787,1964,16082,-189,-143,13
492,970,493,16597,-430,-148,-2
493,247,612,16437,-99,-102,51
494,171,2091,16030,82,-107,54
495,928,1643,16173,-271,-173,-12
496,1049,215,16595,-402,-166,4
497,307,862,16444,-5,-94,68
498,411,2163,15977,47,-123,20
499,1046,1468,16297,-317,-161,-30
500,750,212,16595,-358,-139,34
501,156,1093,16267,41,-105,83
502,440,2256,16050,15,-132,45
503,976,1247,16319,-365,-153,-15
504,506,227,16596,-289,-109,35
505,-2,1335,16205,82,-113,64
506,645,2208,15978,-53,-153,4
507,1196,1032,16458,-410,-143,-24
508,594,340,16565,-243,-113,23
509,83,1681,16131,102,-107,54
510,781,2096,16068,-142,-124,31
511,1219,693,16494,-435,-149,12
512,457,354,16514,-153,-125,60
513,141,1829,16080,104,-140,66
514,757,1895,16062,-187,-156,9
515,1025,433,16509,-422,-142,4
516,263,597,16514,-77,-107,89
517,131,2039,16002,101,-121,58
518,836,1862,16101,-243,-153,-4
519,831,414,16546,-370,-130,-7
520,254,859,16346,-29,-97,40
521,444,2198,16071,50,-136,36
522,1122,1548,16191,-315,-180,-16
523,853,239,16572,-381,-128,35
524,147,1058,16270,6,-82,80
525,534,2198,15983,12,-111,28
526,1138,1336,16355,-369,-130,8
527,688,242,16539,-309,-114,44
528,-22,1392,16212,64,-81,76
529,467,2212,16010,-44,-110,22
530,1149,1091,16401,-403,-161,-10
531,536,232,16575,-267,-119,49
532,91,1622,16141,113,-133,73
533,687,2055,16036,-112,-156,9
534,1131,680,16453,-430,-161,-1
535,554,341,16512,-195,-102,67
536,188,1803,16115,126,-115,62
537,815,2043,15995,-147,-168,1
538,925,531,16520,-418,-163,3
539,252,559,16436,-116,-90,66
540,202,2021,16060,101,-115,46
541,890,1876,16105,-231,-170,-18
542,881,454,16606,-411,-123,8
543,147,783,16392,-60,-93,64
544,395,2109,15998,38,-99,38
545,1176,1606,16289,-300,-162,-20
546,952,317,16566,-366,-144,25
547,187,1061,16312,33,-96,99
548,427,2144,15972,18,-129,58
549,1118,1318,16300,-366,-139,-8
550,612,219,16632,-332,-115,30
551,2,1317,16166,71,-121,77
552,385,2140,15983,-34,-130,28
553,980,989,16403,-387,-143,-36
554,634,267,16566,-253,-97,21
555,84,1568,16185,85,-77,51
556,725,2215,16015,-88,-148,6
557,1085,761,16451,-414,-158,-5
558,462,402,16542,-173,-84,77
559,210,1745,16116,95,-105,57
560,873,2050,16071,-166,-158,-2
561,1059,548,16479,-437,-168,-18
562,244,494,16413,-130,-93,47
563,151,1999,16026,114,-82,64
564,989,1859,16191,-252,-155,-19
565,974,472,16530,-392,-157,-8
566,228,794,16446,-59,-92,69
567,243,2093,15989,60,-131,50
568,1073,1557,16233,-300,-164,-10
569,898,214,16635,-390,-168,33
570,152,1017,16271,-3,-109,59
571,370,2126,16040,2,-127,21
572,1058,1260,16309,-348,-154,-5
573,791,235,16567,-302,-133,22
574,107,1343,16274,83,-95,62
575,497,2343,15934,-25,-129,-4
576,998,1065,16396,-408,-147,-29
577,545,307,16594,-252,-141,24
578,130,1519,16167,104,-106,55
579,740,2188,16106,-85,-137,12
580,1136,742,16471,-411,-165,-12
581,457,306,16541,-193,-92,69
582,144,1789,16118,110,-78,68
583,911,2015,16147,-156,-131,-8
584,1128,642,16493,-403,-143,10
585,305,524,16417,-123,-86,82
586,21,2013,16020,118,-112,61
587,847,1808,16146,-223,-173,0
588,986,395,16541,-426,-122,-2
589,203,687,16390,-74,-111,67
590,254,2054,16053,69,-133,60
591,929,1603,16199,-284,-135,-3
592,927,233,16624,-367,-114,21
593,288,947,16381,14,-100,78
594,453,2227,15969,34,-133,39
595,1020,1368,16275,-325,-173,-16
596,630,277,16555,-322,-126,29
597,92,1202,16244,22,-110,74
598,517,2208,16097,-27,-155,18
599,1059,1060,16325,-388,-188,-13
600,498,279,16540,-259,-129,50
601,10,1501,16136,67,-83,63
602,749,2082,16041,-78,-130,-15
603,1177,877,16478,-401,-167,1
604,530,389,16484,-184,-112,58
605,122,1763,16086,96,-85,73
606,767,1893,16133,-173,-171,38
607,1105,625,16494,-410,-157,12
608,317,470,16477,-111,-107,59
609,116,1958,16084,94,-111,49
610,775,1846,16084,-216,-148,-15
611,944,429,16573,-423,-137,17
612,275,751,16430,-56,-103,84
613,296,2110,16040,91,-117,50
614,1016,1676,16194,-287,-168,-24
615,838,290,16543,-370,-139,6
616,217,879,16305,13,-62,62
617,446,2172,16081,45,-109,46
618,1100,1419,16243,-327,-151,-11
619,703,208,16620,-297,-129,44
620,8,1216,16257,65,-73,73
621,510,2274,15977,-12,-133,45
622,1119,1177,16361,-403,-170,-6
623,609,242,16530,-288,-135,39
624,65,1481,16173,99,-119,79
625,567,2070,16037,-76,-155,3
626,1157,892,16427,-415,-168,-25
627,502,273,16590,-223,-115,34
628,103,1737,16065,102,-116,65
629,725,2051,16068,-133,-156,18
630,1059,592,16499,-430,-166,-9
631,458,472,16449,-137,-99,69
632,218,1966,16143,108,-120,67
633,872,1932,16073,-209,-184,-5
634,906,436,16516,-431,-140,19
635,140,688,16352,-96,-116,63
636,255,2076,16043,98,-102,47
637,972,1653,16212,-306,-151,9
638,870,386,16579,-372,-146,-8
639,114,941,16331,-33,-94,76
640,426,2204,15985,25,-113,43
641,1232,1518,16302,-338,-161,-30
642,935,313,16542,-332,-136,13
643,170,1198,16238,2,-71,68
644,482,1999,16013,-68,-114,7
645,1299,942,16385,-393,-164,12
646,850,1,16685,-320,-126,82
647,214,1266,16202,78,-114,116
648,561,2050,15996,-54,-132,76
649,789,918,16426,-346,-145,46
650,82,414,16498,-149,-97,77
651,-431,1924,16100,167,-100,42
652,217,2480,15900,-99,-172,-31
653,656,1010,16394,-449,-170,-100
654,316,641,16448,-227,-122,-53
655,548,1807,16104,1,-137,-44
656,1584,1668,16256,-275,-167,-61
657,1878,302,16589,-433,-151,-4
658,1012,447,16451,-117,-85,114
659,776,1782,16081,88,-82,153
660,1215,1575,16255,-186,-131,114
661,636,389,16563,-318,-139,145
662,-460,1022,16288,15,-83,178
663,-577,2236,15911,87,-90,90
664,164,1651,16211,-275,-148,-27
665,101,406,16578,-371,-138,-22
666,-357,1273,16246,-2,-123,-24
667,331,2243,15977,-45,-173,-93
668,1224,1306,16316,-384,-202,-130
669,1211,348,16618,-316,-148,-79
670,924,1218,16308,26,-130,8
671,1515,1969,16074,-69,-156,-2
672,1942,848,16462,-389,-157,26
673,1206,339,16541,-262,-69,143
674,537,1276,16225,26,-72,190
675,657,1803,16228,-85,-139,147
676,507,838,16404,-311,-143,136
677,-533,706,16341,-82,-86,165
678,-989,2030,15940,97,-92,108
679,-190,2024,16048,-164,-158,-51
680,232,739,16481,-398,-174,-114
681,-38,555,16366,-169,-133,-81
682,283,1779,16085,19,-173,-109
683,1535,1454,16321,-283,-205,-167
684,1957,378,16619,-346,-185,-100
685,1252,1107,16362,16,-108,37
686,1182,2293,15991,60,-123,64
687,1535,1656,16194,-323,-157,56
688,1089,231,16632,-436,-120,114
689,203,777,16393,-41,-64,192
690,207,2034,16037,45,-107,171
691,591,1435,16254,-283,-135,111
692,11,436,16423,-324,-112,100
693,-558,1198,16175,6,-96,88
694,-64,2078,16100,-30,-132,9
695,542,1059,16324,-353,-163,-42
696,194,263,16513,-275,-145,-40
697,-117,1335,16190,51,-127,-39
698,828,1822,16140,-127,-186,-98
699,1436,855,16498,-389,-173,-102
700,934,613,16413,-147,-109,-15
701,633,2030,16124,135,-110,18
702,1307,2149,16120,-162,-150,-24
703,1726,905,16430,-417,-144,35
704,892,641,16511,-210,-62,128
705,628,1730,16094,-11,-79,149
706,1024,1533,16228,-226,-145,106
707,747,390,16551,-343,-99,105
708,-263,649,16336,-68,-65,166
709,-519,1959,16023,69,-115,119
710,97,1653,16111,-237,-161,19
711,-59,490,16448,-353,-152,-1
712,-506,1018,16231,-56,-120,-19
713,139,2132,15996,-47,-133,-91
714,1110,1312,16317,-357,-197,-149
715,1106,221,16601,-317,-165,-99
716,703,1193,16238,32,-120,-33
717,1412,1970,16104,-57,-150,-22
718,2151,1028,16429,-370,-162,1
719,1571,360,16554,-249,-87,114
720,776,1426,16232,75,-68,181
721,913,2035,16047,-46,-112,146
722,957,1114,16394,-335,-115,137
723,-255,602,16515,-160,-60,186
724,-1082,1863,15995,113,-89,140
725,-615,2129,15965,-118,-168,20
726,-229,868,16298,-413,-172,-4
727,-397,504,16329,-218,-117,-41
728,-32,1566,16224,6,-146,-125
729,1302,1665,16162,-262,-225,-160
730,1871,246,16665,-426,-208,-151
731,1480,546,16482,-50,-141,-40
732,1551,1908,16053,120,-121,56
733,2039,1902,16188,-227,-134,65
734,1564,620,16493,-441,-104,134
735,265,383,16544,-155,-61,213
736,-47,1689,16118,116,-73,197
737,299,1876,16144,-117,-117,138
738,-271,935,16310,-293,-107,93
739,-902,1340,16145,-70,-116,60
740,-425,2035,16004,-76,-134,0
741,670,1418,16251,-346,-165,-53
742,640,593,16489,-354,-138,-64
743,288,1244,16200,-58,-136,-44
744,976,1817,16146,-105,-168,-100
745,1460,772,16452,-351,-162,-92
746,961,468,16474,-187,-123,6
747,590,1657,16246,54,-114,59
748,1222,1828,16077,-208,-174,26
749,1631,377,16604,-432,-160,56
750,987,409,16531,-132,-72,161
751,630,1861,16078,109,-67,153
752,959,1841,16203,-201,-128,95
753,636,460,16530,-365,-93,107
754,-565,665,16385,-20,-72,166
755,-960,2277,15882,152,-89,114
756,-138,2147,16011,-220,-159,-24
757,28,592,16496,-435,-180,-58
758,-353,808,16349,-103,-130,-58
759,227,1994,16047,12,-154,-125
760,1508,1534,16312,-319,-204,-195
761,1784,240,16672,-364,-167,-130
762,1240,1098,16381,55,-128,19
763,1562,2288,15992,47,-122,54
764,2021,1538,16232,-350,-129,69
765,1452,226,16628,-439,-103,168
766,533,621,16472,-71,-61,212
767,403,1873,16100,52,-87,143
768,434,1133,16277,-253,-106,114
769,-517,369,16407,-229,-81,151
770,-1078,1284,16130,81,-101,112
771,-414,2113,16063,-30,-163,8
772,134,1236,16269,-317,-157,-48
773,-138,661,16374,-224,-147,-104
774,-106,1660,16097,-23,-142,-137
775,1180,1700,16228,-231,-210,-181
776,1856,554,16625,-372,-192,-152
777,1382,644,16438,-64,-123,-19
778,1227,2006,16063,155,-137,43
779,1919,1936,16130,-210,-168,33
780,1969,735,16481,-468,-108,127
781,870,516,16546,-190,-72,227
782,406,1661,16173,70,-70,209
783,471,1716,16152,-152,-114,165
784,-88,617,16405,-318,-113,168
785,-988,922,16283,-64,-65,155
786,-925,1961,16041,16,-111,44
787,-119,1529,16160,-290,-164,-49
788,-149,479,16377,-330,-153,-84
789,-251,1003,16229,-53,-160,-108
790,784,1808,16160,-81,-187,-157
791,1903,833,16481,-359,-217,-163
792,1758,202,16668,-213,-149,-73
793,1152,1591,16193,176,-120,45
794,1593,2478,16011,17,-129,62
795,1858,1549,16314,-404,-129,40
796,864,193,16601,-400,-78,121
797,109,1081,16410,26,-72,152
798,385,2153,16002,-10,-97,122
799,645,1263,16284,-360,-121,88
800,-154,512,16540,-272,-109,116
801,-514,1484,16108,-3,-116,103
802,190,1783,16132,-167,-166,18
803,441,669,16437,-369,-169,-9
804,31,568,16376,-114,-115,8
805,63,1653,16191,34,-161,-49
806,998,1488,16219,-250,-196,-117
807,1133,388,16555,-323,-181,-71
808,526,954,16387,26,-102,8
809,737,2365,15974,97,-117,-1
810,1403,1861,16185,-299,-194,-48
811,1209,446,16544,-414,-140,-9
812,560,788,16369,-64,-100,73
813,1044,1909,16123,5,-105,101
814,1753,1418,16293,-281,-124,82
815,1051,524,16474,-291,-79,139
816,-54,1229,16282,15,-81,180
817,-213,1902,16031,-34,-133,117
818,123,1083,16303,-305,-133,89
819,-490,506,16440,-199,-84,80
820,-950,1524,16033,56,-129,3
821,-218,1976,16009,-135,-168,-121
822,634,721,16430,-457,-182,-137
823,733,177,16558,-236,-135,-93
824,968,1445,16352,77,-127,-94
825,1956,1847,16209,-80,-187,-106
826,2237,1112,16427,-233,-154,-32
827,1355,1490,16202,-73,-87,114
828,928,2177,15966,-69,-79,151
829,1270,1375,16395,-434,-162,86
830,893,-40,16666,-423,-104,132
831,-248,776,16320,47,-26,202
832,-510,2270,15851,107,-80,161
833,193,1551,16149,-337,-145,47
834,24,118,16631,-385,-142,35
835,-604,939,16249,24,-80,47
836,-355,2374,15854,82,-116,-12
837,712,1638,16147,-394,-173,-104
838,749,10,16634,-434,-151,-110
839,335,821,16365,27,-137,-42
840,997,2157,16013,76,-167,-73
841,1706,1386,16245,-322,-181,-121
842,1432,384,16548,-321,-128,-25
843,985,1065,16432,10,-98,49
844,1437,1932,16170,-47,-104,82
845,1779,1081,16426,-316,-131,104
846,893,656,16440,-214,-65,218
847,58,1709,16123,53,-53,244
848,139,2144,16134,-104,-108,131
849,-60,931,16385,-368,-144,105
850,-932,638,16347,-184,-93,126
851,-1229,1687,16027,32,-125,17
852,-196,1779,16087,-170,-177,-107
853,551,720,16491,-408,-177,-141
854,503,516,16434,-203,-144,-114
855,964,1475,16250,2,-153,-149
856,2014,1350,16365,-178,-194,-160
857,2292,758,16541,-220,-134,-53
858,1341,1522,16218,-2,-86,97
859,1140,2213,15982,-90,-122,81
860,1453,940,16415,-440,-181,73
861,951,-285,16792,-357,-130,172
862,-12,1078,16258,144,-54,219
863,-107,2575,15927,98,-73,157
864,226,1438,16218,-389,-133,70
865,-333,156,16514,-340,-101,103
866,-849,1225,16137,86,-106,68
867,-233,2484,15894,32,-157,-14
868,577,1408,16260,-430,-200,-87
869,365,83,16565,-375,-174,-97
870,234,1047,16278,21,-135,-97
871,1328,1703,16185,-87,-161,-107
872,2145,667,16569,-354,-162,-120
873,1623,278,16578,-156,-126,12
874,1099,1937,16226,202,-98,89
875,1368,2743,15932,-19,-94,88
876,1239,1727,16203,-386,-129,59
877,20,585,16569,-358,-92,130
878,-536,1361,16159,-35,-87,144
879,32,1893,16066,-132,-132,87
880,269,695,16360,-436,-124,58
881,-78,253,16396,-241,-103,69
882,135,1164,16349,-34,-140,19
883,1016,1274,16274,-195,-163,-42
884,932,537,16448,-272,-130,-5
885,178,1024,16297,1,-118,39
886,388,1997,16060,28,-139,10
887,1058,1452,16281,-274,-182,-59
888,767,507,16542,-271,-161,-40
889,117,1322,16225,27,-115,-22
890,574,2260,16050,17,-133,-53
891,1348,1490,16351,-314,-170,-84
892,977,700,16454,-280,-124,-21
893,614,1543,16242,-29,-112,63
894,1237,1882,16162,-182,-145,53
895,1911,967,16463,-395,-139,86
896,1180,697,16457,-209,-83,197
897,215,1625,16101,15,-87,207
898,206,1631,16138,-179,-154,129
899,-49,318,16476,-384,-135,116
900,-817,336,16311,-106,-66,155
901,-1179,1533,16114,151,-115,25
902,-294,1908,15981,-100,-176,-96
903,308,755,16328,-383,-192,-145
904,210,648,16384,-176,-160,-126
905,910,1619,16213,6,-170,-164
906,2156,1362,16481,-194,-226,-180
907,2346,653,16518,-178,-166,-99
908,1467,1527,16248,106,-54,99
909,1264,2719,15887,35,-77,123
910,1712,2181,16127,-438,-172,51
911,990,-13,16792,-598,-107,168
912,-167,425,16508,-31,-43,246
913,-318,2561,15853,248,-83,186
914,169,2191,15944,-272,-123,106
915,-126,308,16487,-505,-107,85
916,-698,428,16468,-154,-117,53
917,-70,1634,16076,-14,-180,-8
918,666,1156,16216,-305,-158,-34
919,421,115,16481,-334,-99,-31
920,175,727,16384,-29,-129,-48
921,948,1495,16200,-44,-163,-95
922,1537,911,16383,-237,-155,-86
923,950,836,16414,-72,-103,-21
924,789,1961,16156,128,-96,2
925,1354,2452,16146,-70,-131,-11
926,1228,1502,16239,-325,-155,-10
927,285,904,16359,-259,-111,65
928,167,1635,16172,-68,-102,84
929,1198,1523,16269,-260,-121,77
930,1340,681,16527,-362,-107,120
931,513,1053,16293,-86,-61,193
932,165,2053,16058,6,-95,141
933,405,1421,16274,-311,-143,40
934,74,206,16511,-374,-136,45
935,-822,837,16335,-23,-92,87
936,-535,1865,15988,-18,-169,-27
937,357,1068,16242,-358,-198,-121
938,652,11,16626,-348,-145,-94
939,670,932,16378,34,-118,-80
940,1403,1983,16209,8,-156,-115
941,2121,1202,16361,-263,-202,-100
942,1540,664,16487,-216,-109,25
943,858,1449,16252,21,-82,123
944,1254,1745,16254,-125,-125,130
945,1225,858,16499,-300,-141,139
946,169,985,16367,-58,-73,207
947,-657,2320,15970,126,-69,174
948,-149,2265,16043,-171,-136,57
949,132,1050,16394,-429,-165,26
950,-372,814,16292,-212,-104,32
951,-256,1957,16020,-27,-148,-39
952,818,1508,16196,-344,-192,-112
953,1402,95,16619,-475,-156,-109
954,827,285,16519,-113,-105,-47
955,882,1622,16177,71,-121,-2
956,1478,1453,16284,-182,-149,-33
957,1171,526,16472,-288,-94,22
958,317,1028,16246,-37,-81,85
959,315,1844,16184,-32,-108,45
960,1016,1142,16314,-330,-157,45
961,746,255,16550,-300,-127,69
962,184,1284,16206,57,-79,115
963,614,2375,15988,-1,-114,102
964,1077,1406,16353,-371,-142,49
965,441,511,16532,-238,-123,87
966,-338,1619,16125,89,-83,96
967,105,2329,15968,-79,-125,9
968,708,1021,16404,-432,-178,-46
969,138,262,16474,-254,-114,-24
970,-139,1573,16114,69,-126,-46
971,642,1822,16067,-147,-164,-105
972,1287,514,16550,-412,-162,-88
973,903,469,16574,-75,-103,-14
974,563,2275,16022,200,-113,15
975,1149,2530,15947,-190,-171,-10
976,1273,643,16478,-535,-156,-1
977,851,94,16553,-240,-94,67
978,948,1444,16220,7,-89,118
979,1572,1546,16131,-205,-111,101
980,1238,338,16521,-353,-89,160
981,-93,506,16447,-30,-44,228
982,-448,1747,16068,154,-84,159
983,-234,1732,16212,-127,-145,91
984,-628,1122,16227,-217,-131,57
985,-1309,1471,16061,-25,-128,-46
986,-633,2117,15992,-72,-150,-155
987,805,1246,16283,-398,-223,-224
988,1263,178,16678,-384,-202,-191
989,1374,740,16461,-6,-169,-131
990,2106,1472,16304,91,-176,-69
991,2680,1491,16334,4,-92,43
992,1979,1957,16122,-47,-45,158
993,1096,2603,15845,-179,-81,149
994,1201,1695,16265,-598,-151,93
995,884,-776,17072,-668,-111,177
996,-306,136,16538,92,-19,301
997,-1045,2583,15716,344,-17,246
998,-635,2153,15923,-298,-150,71
999,-289,-167,16628,-648,-198,41
1000,-788,-472,16592,-155,-119,40
1001,-609,1743,16103,332,-118,-84
1002,581,2798,15878,-33,-170,-126
1003,1088,833,16386,-520,-215,-157
1004,777,56,16718,-240,-159,-141
1005,1095,1566,16261,145,-137,-83
1006,2078,2005,16214,-46,-200,-73
1007,1962,1256,16335,-241,-136,-11
1008,1007,1607,16158,-104,-66,71
1009,900,1864,16139,-153,-124,73
1010,1394,1022,16435,-368,-142,87
1011,1030,414,16552,-250,-80,185
1012,207,1670,16227,100,-52,253
1013,351,2485,15889,-60,-94,180
1014,505,992,16410,-443,-110,114
1015,-275,10,16578,-314,-55,136
1016,-944,1031,16154,56,-71,112
1017,-510,1790,16066,-68,-156,12
1018,-11,566,16398,-387,-168,-69
1019,-349,-72,16467,-230,-154,-79
1020,-171,1289,16160,111,-149,-113
1021,1199,2080,16142,-69,-208,-142
1022,1989,888,16439,-365,-214,-157
1023,1571,460,16635,-111,-131,-80
1024,1326,1892,16208,224,-92,11
1025,1837,2744,15990,55,-122,34
1026,1649,2385,16012,-302,-122,10
1027,479,783,16409,-515,-114,90
1028,176,222,16676,-284,-130,142
1029,654,1370,16307,-12,-103,180
1030,694,1787,16115,-104,-61,207
1031,-71,1486,16219,-215,-49,180
1032,-71,1376,16264,-246,-106,91
1033,444,735,16462,-304,-148,42
1034,91,312,16466,-204,-107,63
1035,-499,1087,16127,-13,-84,81
1036,-203,1663,16158,-113,-141,-25
1037,542,485,16451,-388,-203,-133
1038,403,64,16576,-173,-143,-90
1039,187,1594,16150,181,-113,-58
1040,1137,2427,16055,-17,-162,-125
1041,1930,1342,16414,-329,-176,-152
1042,1475,782,16495,-198,-124,-34
1043,988,1731,16111,16,-102,39
1044,1607,1805,16165,-188,-157,20
1045,1854,506,16607,-425,-121,98
1046,777,446,16530,-134,-79,208
1047,-18,2104,16068,168,-71,251
1048,53,2290,15985,-117,-90,153
1049,-14,922,16415,-415,-116,107
1050,-818,935,16339,-134,-75,146
1051,-860,2184,15878,46,-130,15
1052,145,1708,16105,-347,-225,-105
1053,475,-8,16582,-532,-207,-129
1054,293,29,16467,-189,-122,-86
1055,931,1347,16320,46,-158,-96
1056,1951,1336,16327,-150,-201,-114
1057,1871,721,16512,-199,-135,-30
1058,1082,1608,16190,54,-61,97
1059,1309,2239,15937,-76,-92,68
1060,1651,841,16464,-509,-160,55
1061,760,-314,16713,-333,-98,100
1062,-343,919,16288,166,-47,177
1063,-254,2274,15910,138,-69,178
1064,154,1512,16221,-279,-124,122
1065,-479,746,16489,-222,-98,106
1066,-853,2083,16013,113,-92,69
1067,-40,3115,15732,-70,-151,-37
1068,854,1577,16262,-587,-176,-131
1069,807,-2,16621,-520,-178,-145
1070,875,717,16425,-117,-166,-110
1071,1884,1297,16275,-118,-184,-103
1072,2199,479,16483,-317,-154,-15
1073,1418,789,16374,-41,-71,134
1074,864,2085,16070,74,-85,142
1075,832,1547,16228,-276,-139,89
1076,280,217,16607,-349,-147,98
1077,-738,550,16293,-22,-69,154
1078,-559,1970,15932,109,-96,94
1079,517,1481,16314,-322,-149,5
1080,669,184,16556,-378,-152,38
1081,81,1122,16324,62,-90,61
1082,222,2599,15864,118,-118,17
1083,943,1937,16178,-338,-168,-52
1084,664,359,16636,-417,-138,-44
1085,144,1246,16251,9,-127,24
1086,724,2359,15950,-5,-143,-5
1087,1621,1380,16281,-394,-167,-41
1088,1489,285,16617,-371,-121,29
1089,706,1179,16376,27,-92,47
1090,782,2246,15928,-2,-137,4
1091,793,976,16326,-382,-144,6
1092,98,88,16542,-301,-113,107
1093,-80,1064,16222,20,-101,145
1094,786,1905,16140,-100,-134,87
1095,1282,787,16401,-415,-120,70
1096,474,566,16443,-184,-75,101
1097,-21,1657,16067,43,-98,56
1098,413,1392,16227,-207,-153,-25
1099,287,365,16520,-304,-115,24
1100,-506,736,16364,12,-78,78
1101,-425,2454,15872,182,-136,7
1102,784,2240,16025,-251,-181,-90
1103,1246,772,16551,-423,-150,-131
1104,856,868,16430,-93,-133,-81
1105,1180,2019,16191,61,-164,-104
1106,1847,2017,16156,-208,-164,-112
1107,1650,824,16431,-443,-135,37
1108,917,476,16564,-267,-90,153
1109,1041,1061,16291,-91,-100,172
1110,1280,1265,16294,-176,-127,182
1111,485,994,16330,-195,-67,228
1112,-485,1344,16133,-63,-64,199
1113,-471,1632,16181,-158,-132,90
1114,-139,545,16445,-353,-170,53
1115,-672,291,16431,-171,-108,56
1116,-992,1475,16048,126,-116,-3
1117,17,2156,15998,-67,-157,-101
1118,919,1022,16400,-439,-195,-161
1119,829,335,16506,-247,-174,-150
1120,942,1491,16280,87,-148,-119
1121,2095,1657,16302,-48,-198,-144
1122,2624,1066,16447,-187,-154,-27
1123,1602,1595,16172,27,-35,107
1124,877,2858,15792,-5,-70,117
1125,1014,1572,16307,-563,-176,78
1126,672,-766,17032,-580,-119,156
1127,-432,579,16422,181,-37,260
1128,-581,3086,15625,299,-65,215
1129,183,2348,15924,-398,-147,43
1130,137,-54,16698,-653,-126,9
1131,-303,85,16518,-116,-77,50
1132,91,1775,16125,96,-109,1
1133,868,1586,16070,-303,-183,-52
1134,615,-29,16531,-429,-185,-38
1135,137,380,16454,-4,-125,-19
1136,856,1992,16094,177,-128,-36
1137,1644,1951,16198,-202,-144,-79
1138,1226,801,16430,-312,-132,-63
1139,619,1348,16311,-36,-121,-2
1140,1019,1709,16170,-84,-155,4
1141,1376,956,16420,-324,-154,19
1142,597,224,16579,-238,-100,115
1143,83,1559,16199,120,-80,168
1144,460,2417,16020,-3,-123,128
1145,691,1464,16323,-360,-135,90
1146,57,883,16377,-220,-83,99
1147,-263,2065,16015,3,-82,64
1148,533,2045,16050,-284,-150,-18
1149,841,197,16534,-539,-191,-35
1150,354,19,16527,-188,-130,32
1151,360,1605,16171,112,-101,27
1152,1059,1681,16208,-184,-162,-44
1153,939,602,16463,-301,-152,-49
1154,34,1191,16226,11,-99,14
1155,274,2186,15899,-20,-125,-35
1156,1394,934,16480,-486,-167,-61
1157,1510,-519,16765,-438,-120,19
1158,941,480,16450,50,-47,111
1159,1123,1790,16076,114,-84,113
1160,1378,1388,16290,-196,-128,122
1161,275,694,16559,-158,-104,183
1162,-885,1766,16082,172,-64,176
1163,-737,2865,15885,109,-106,114
1164,-148,2335,16031,-278,-153,0
1165,-205,1112,16306,-426,-144,-75
1166,-199,1202,16301,-239,-139,-138
1167,1031,1399,16292,-305,-181,-201
1168,1942,170,16594,-490,-187,-167
1169,1655,-113,16670,-171,-130,-22
1170,1378,1515,16253,242,-120,78
1171,1500,2675,15959,39,-97,97
1172,1159,1493,16280,-402,-145,72
1173,-81,125,16611,-351,-120,145
1174,-333,1126,16260,18,-91,130
1175,591,1908,16151,-82,-129,59
1176,892,837,16336,-405,-128,50
1177,322,209,16504,-270,-77,89
1178,229,1123,16241,-33,-102,64
1179,841,1277,16305,-108,-120,48
1180,526,811,16480,-160,-87,84
1181,-454,1458,16154,67,-57,78
1182,-411,2440,15957,73,-136,4
1183,429,1798,16155,-307,-165,-77
1184,717,694,16396,-394,-148,-86
1185,519,1093,16396,-107,-138,-77
1186,1196,1824,16180,-68,-167,-88
1187,1905,1180,16437,-260,-173,-69
1188,1364,1010,16418,-152,-112,31
1189,627,1702,16102,-21,-103,111
1190,915,1731,16245,-247,-143,78
1191,1278,483,16566,-449,-143,96
1192,657,532,16467,-140,-96,191
1193,96,1804,16016,70,-55,186
1194,507,1597,16087,-252,-147,81
1195,534,-58,16714,-465,-144,64
1196,-423,-162,16568,-86,-91,119
1197,-976,1694,16001,255,-88,80
1198,-241,2304,15925,-17,-130,-36
1199,301,1137,16329,-364,-188,-81
1200,59,847,16423,-152,-156,-98
1201,549,2137,16107,69,-139,-150
1202,1735,1912,16201,-200,-198,-205
1203,2214,758,16494,-335,-190,-165
1204,1624,1078,16336,-86,-95,24
1205,1537,1705,16141,-120,-103,95
1206,2004,956,16457,-393,-102,156
1207,1294,-35,16715,-338,-81,256
1208,38,994,16341,98,-34,315
1209,-354,2478,16004,149,-63,247
1210,-289,1905,16108,-249,-130,100
1211,-751,598,16347,-388,-114,87
1212,-1259,858,16189,-100,-113,39
1213,-518,1850,16021,-29,-153,-85
1214,570,1303,16299,-328,-180,-139
1215,665,235,16507,-389,-164,-131
1216,602,819,16384,-68,-165,-107
1217,1503,1472,16263,-25,-204,-140
1218,2314,877,16555,-243,-166,-119
1219,1588,936,16425,-54,-104,46
1220,840,2433,15960,138,-83,109
1221,984,2361,15990,-214,-160,44
1222,1055,402,16647,-534,-148,73
1223,410,171,16621,-164,-59,171
1224,-37,2299,15977,215,-59,178
1225,601,2466,15884,-167,-128,103
1226,648,505,16500,-520,-138,76
1227,-130,299,16485,-216,-84,103
1228,-178,1662,16102,59,-127,103
1229,552,1615,16161,-232,-170,16
1230,572,248,16543,-393,-139,16
1231,-193,566,16387,-89,-117,54
1232,104,1735,16065,65,-133,-30
1233,1044,1437,16261,-244,-175,-104
1234,978,360,16450,-296,-157,-65
1235,355,1197,16315,52,-153,-9
1236,716,2341,16018,40,-141,-34
1237,1440,1813,16211,-258,-133,-72
1238,893,912,16474,-290,-137,-7
1239,330,1287,16260,-98,-142,27
1240,941,1779,16218,-165,-134,36
1241,1714,977,16435,-357,-127,85
1242,1321,541,16498,-227,-83,145
1243,484,1621,16195,57,-74,192
1244,506,2076,16025,-146,-115,137
1245,208,539,16513,-400,-141,124
1246,-654,98,16451,-197,-63,162
1247,-1036,1389,16140,139,-92,84
1248,-318,2104,16025,-60,-161,-71
1249,395,730,16375,-455,-173,-137
1250,348,317,16522,-190,-155,-105
1251,817,1740,16200,89,-134,-117
1252,2029,1827,16301,-149,-193,-154
1253,2172,1092,16457,-255,-179,-67
1254,1202,1677,16069,-26,-78,84
1255,690,2103,15984,-174,-76,80
1256,1224,378,16659,-534,-162,42
1257,1005,-589,16904,-285,-100,147
1258,94,1609,16043,273,-11,252
1259,0,3062,15733,111,-83,195
1260,466,1485,16266,-472,-174,76
1261,99,55,16660,-385,-119,108
1262,-634,1421,16281,111,-61,122
1263,-343,2532,15814,-27,-126,29
1264,364,978,16333,-487,-190,-82
1265,200,-342,16674,-388,-152,-95
1266,184,784,16319,7,-120,-94
1267,1239,1860,16188,-36,-181,-110
1268,2096,775,16488,-319,-178,-109
1269,1641,442,16604,-118,-113,-29
1270,1037,2045,16176,251,-79,69
1271,1265,3045,15785,7,-101,80
1272,1005,1521,16286,-535,-183,10
1273,-30,-609,16830,-507,-139,104
1274,-396,844,16343,130,-96,165
1275,510,2577,15929,89,-94,136
1276,949,1446,16226,-395,-122,79
1277,266,290,16552,-349,-101,79
1278,64,1547,16208,29,-95,66
1279,584,2007,16036,-137,-145,22
1280,598,622,16430,-410,-156,25
1281,-258,499,16443,-164,-111,41
1282,-222,1699,16084,4,-114,-2
1283,719,1392,16282,-259,-175,-97
1284,898,279,16569,-350,-148,-98
1285,631,1038,16316,7,-129,-40
1286,1105,2276,16128,47,-142,-76
1287,1736,1676,16214,-272,-160,-81
1288,1241,699,16464,-335,-112,9
1289,382,734,16439,-133,-93,103
1290,774,1399,16297,-40,-130,98
1291,1246,1196,16364,-206,-125,122
1292,486,1074,16283,-130,-65,178
1293,-415,1734,16136,-2,-94,139
1294,-20,1836,16134,-153,-136,59
1295,464,1099,16394,-347,-139,24
1296,-20,760,16373,-206,-108,63
1297,-171,1619,16109,-24,-134,4
1298,672,1692,16155,-204,-178,-62
1299,1210,555,16526,-400,-166,-68
1300,774,492,16484,-114,-132,-19
1301,603,1899,16110,90,-124,-2
1302,1310,1958,16128,-185,-165,-58
1303,1252,521,16514,-401,-154,-23
1304,389,558,16392,-93,-90,60
1305,348,1655,16074,15,-99,75
1306,1002,1252,16333,-296,-144,29
1307,872,208,16632,-307,-145,85
1308,10,1122,16262,65,-54,151
1309,107,2456,15882,90,-80,116
1310,684,1831,16238,-311,-134,24
1311,374,608,16441,-338,-155,39
1312,-311,1373,16216,3,-130,59
1313,151,2249,15942,-68,-149,-26
1314,1139,1085,16383,-442,-163,-95
1315,999,-29,16690,-342,-129,-43
1316,630,1164,16220,66,-114,2
1317,1153,1991,16108,-18,-131,-27
1318,1506,1211,16435,-305,-144,-17
1319,713,1017,16387,-141,-106,59
1320,-47,1807,16104,4,-112,71
1321,506,1697,16136,-275,-182,33
1322,1020,189,16601,-489,-146,66
1323,674,381,16484,-148,-69,141
1324,520,1807,16099,101,-74,116
1325,1003,1922,16087,-186,-107,52
1326,711,336,16583,-405,-145,49
1327,-431,297,16460,-79,-102,110
1328,-681,2000,15968,174,-102,83
1329,110,2196,16048,-152,-158,-35
1330,299,710,16441,-419,-167,-73
1331,32,814,16409,-142,-128,-53
1332,605,2083,16082,45,-125,-97
1333,1873,1640,16335,-262,-191,-169
1334,1918,647,16603,-300,-183,-94
1335,1044,1699,16148,40,-88,56
1336,1102,2340,16029,-97,-127,47
1337,1518,689,16486,-543,-174,63
1338,1149,-518,16771,-380,-112,196
1339,243,1262,16350,202,-39,266
1340,251,2694,15763,29,-99,210
1341,378,1115,16309,-442,-132,108
1342,-477,-54,16594,-325,-72,118
1343,-1089,935,16184,103,-93,97
1344,-522,2147,16031,71,-156,-14
1345,146,1371,16202,-322,-159,-81
1346,-51,560,16381,-294,-143,-74
1347,271,1248,16307,-61,-162,-106
1348,1688,1658,16303,-102,-197,-205
1349,2389,858,16518,-245,-200,-185
1350,1855,1034,16423,18,-113,-22
1351,1379,2392,15993,189,-40,87
1352,1819,2819,15777,-238,-147,29
1353,1589,422,16609,-838,-175,68
1354,294,-1695,17194,-510,-85,254
1355,-158,1030,16368,399,-24,299
1356,8,3239,15647,284,-73,265
1357,-246,1661,16069,-396,-122,129
1358,-1039,593,16424,-349,-110,86
1359,-854,1388,16235,-37,-151,-3
1360,134,1840,16136,-146,-184,-95
1361,307,991,16199,-359,-140,-99
1362,234,710,16352,-254,-148,-103
1363,1176,1003,16501,-170,-192,-127
1364,2172,736,16439,-222,-189,-115
1365,1796,803,16496,-33,-125,-13
1366,1038,2114,16061,205,-54,55
1367,1307,2771,15883,-78,-108,20
1368,1392,1079,16408,-557,-162,-1
1369,384,-610,16753,-466,-116,119
1370,-224,510,16410,80,-82,188
1371,495,1994,16036,99,-96,169
1372,977,1503,16214,-281,-107,130
1373,65,662,16487,-221,-103,123
1374,-443,1701,16112,80,-128,70
1375,65,2480,15919,-60,-161,26
1376,362,1406,16261,-409,-139,-13
1377,-117,635,16372,-281,-132,5
1378,-34,1472,16175,-67,-150,-58
1379,1051,1467,16247,-255,-179,-130
1380,1373,375,16575,-371,-144,-104
1381,946,802,16391,-31,-105,-13
1382,1121,2202,16041,102,-134,-16
1383,1770,1544,16192,-327,-188,-39
1384,1531,-286,16746,-476,-153,51
1385,631,247,16469,-9,-62,190
1386,631,1803,16073,143,-64,191
1387,958,1493,16280,-204,-99,127
1388,60,442,16442,-273,-79,128
1389,-1023,1373,16229,115,-85,120
1390,-648,2422,15847,95,-140,56
1391,193,1977,16096,-303,-153,-5
1392,88,969,16445,-375,-125,-33
1393,73,1373,16212,-124,-160,-81
1394,1017,1686,16207,-187,-200,-147
1395,1870,961,16520,-351,-163,-125
1396,1540,893,16402,-143,-103,-18
1397,983,2074,16106,88,-119,49
1398,1408,2092,15974,-286,-163,30
1399,1338,-198,16701,-600,-133,75
1400,434,-534,16697,-205,-82,164
1401,131,1376,16116,218,-69,176
1402,658,1918,15991,-78,-101,137
1403,540,308,16516,-386,-122,90
1404,-536,453,16437,-34,-65,127
1405,-544,2171,15948,217,-74,95
1406,317,2345,16028,-154,-140,18
1407,234,841,16353,-421,-148,-28
1408,-276,825,16367,-132,-148,-47
1409,211,1962,16044,-3,-128,-96
1410,1541,1541,16322,-281,-188,-149
1411,1794,471,16678,-327,-168,-85
1412,1269,1332,16355,74,-113,11
1413,1472,2608,16037,111,-97,62
1414,1668,2446,15899,-256,-115,17
1415,872,673,16414,-622,-144,41
1416,-44,-549,16891,-393,-129,111
1417,324,911,16332,44,-133,140
1418,846,1538,16115,-97,-123,145
1419,326,859,16289,-293,-90,150
1420,-123,817,16354,-154,-82,132
1421,304,1332,16363,-80,-126,73
1422,410,936,16328,-217,-137,16
1423,-417,788,16282,-110,-95,68
1424,-729,1735,16041,48,-133,-3
1425,328,1767,16194,-186,-190,-86
1426,982,964,16483,-313,-192,-100
1427,755,1165,16337,-71,-142,-73
1428,967,2147,16102,64,-146,-86
1429,2049,1885,16295,-161,-197,-137
1430,2152,1326,16393,-256,-114,-33
1431,958,1803,16057,-136,-48,82
1432,575,1589,16209,-321,-135,44
1433,927,-320,16829,-538,-151,65
1434,702,-313,16698,-138,-70,221
1435,-66,1710,16027,229,-40,270
1436,59,2507,15924,-71,-118,141
1437,637,837,16392,-492,-144,36
1438,101,46,16598,-278,-101,56
1439,-511,1288,16174,139,-104,78
1440,-143,2179,16013,1,-151,-2
1441,379,961,16315,-410,-164,-40
1442,102,221,16546,-255,-155,-26
1443,36,1659,16190,138,-123,-61
1444,1215,2501,15996,-23,-145,-112
1445,1929,1236,16510,-385,-174,-121
1446,1516,722,16494,-168,-139,-48
1447,1053,2339,16024,188,-113,13
1448,1401,2445,15842,-239,-146,-13
1449,1373,-100,16652,-765,-170,20
1450,363,-1578,17055,-377,-116,182
1451,-65,1085,16238,382,-64,255
1452,390,2711,15729,131,-108,180
1453,426,1111,16316,-437,-141,104
1454,-318,483,16564,-209,-73,123
1455,-413,2458,15982,212,-95,72
1456,316,2837,15893,-145,-170,-47
1457,331,774,16333,-568,-170,-77
1458,-27,335,16475,-270,-131,-43
1459,622,1287,16297,-40,-161,-66
1460,1723,1125,16317,-260,-191,-84
1461,1703,269,16543,-273,-142,-18
1462,1018,1208,16351,92,-88,45
1463,1275,2530,16004,122,-116,68
1464,1442,2232,16105,-250,-128,5
1465,424,544,16414,-453,-103,53
1466,-606,266,16456,-149,-97,101
1467,-262,1020,16229,-30,-159,94
1468,482,925,16283,-240,-135,78
1469,226,521,16420,-219,-122,77
1470,62,1283,16242,-1,-108,34
1471,958,1817,16283,-78,-138,3
1472,1522,1389,16385,-226,-123,10
1473,997,1452,16244,-119,-64,89
1474,442,2061,16133,-20,-81,72
1475,765,1730,16156,-264,-173,0
1476,704,524,16475,-397,-155,19
1477,-45,736,16353,-81,-81,66
1478,-57,1924,16039,37,-100,30
1479,805,1735,16271,-235,-165,-50
1480,935,758,16461,-301,-171,-76
1481,194,1318,16221,-29,-101,-31
1482,369,2087,15952,-70,-128,-39
1483,1291,777,16452,-459,-216,-61
1484,1339,-868,16901,-455,-134,50
1485,915,541,16428,109,-40,178
1486,1046,2313,15878,160,-72,172
1487,1361,1607,16223,-319,-137,104
1488,456,174,16693,-365,-121,132
1489,-729,1194,16226,119,-88,148
1490,-642,2493,15865,124,-140,78
1491,-140,1757,16092,-288,-146,-15
1492,-232,723,16391,-335,-135,-39
1493,-220,1376,16313,-51,-133,-58
1494,1007,2132,16081,-138,-178,-123
1495,1947,963,16466,-414,-197,-154
1496,1546,439,16505,-234,-124,-55
1497,1361,1463,16279,80,-101,9
1498,1546,2271,16132,-34,-112,49
1499,1064,1320,16237,-374,-134,40
1500,-239,-181,16573,-392,-103,109
1501,-467,666,16379,-15,-93,171
1502,548,1821,16121,-20,-105,113
1503,997,1335,16268,-297,-108,76
1504,584,812,16379,-229,-98,67
1505,471,1587,16119,-75,-98,50
1506,1001,1372,16328,-253,-135,13
1507,586,295,16562,-296,-130,78
1508,-507,964,16245,43,-85,117
1509,-426,2213,15914,89,-108,79
1510,398,1606,16170,-282,-182,-18
1511,643,413,16518,-351,-143,-69
1512,470,1328,16294,22,-96,-65
1513,1125,2162,16097,-73,-141,-110
1514,1963,988,16477,-392,-181,-120
1515,1339,485,16566,-224,-100,12
1516,410,1753,16101,108,-100,102
1517,531,2091,16120,-144,-142,98
1518,880,557,16498,-451,-125,91
1519,314,345,16518,-204,-72,160
1520,26,1896,16066,83,-72,138
1521,984,2148,16049,-195,-137,48
1522,1300,679,16485,-501,-134,26
1523,419,43,16542,-246,-112,113
1524,-272,1320,16169,121,-100,126
1525,112,1719,16144,-75,-125,60
1526,253,832,16389,-305,-132,46
1527,-425,747,16397,-105,-117,18
1528,-214,2052,16008,100,-125,-79
1529,816,2035,16076,-219,-174,-169
1530,1358,556,16551,-457,-157,-179
1531,1103,645,16550,-104,-119,-76
1532,1176,2168,16141,135,-107,-17
1533,1605,2251,15967,-210,-175,-30
1534,1139,221,16535,-548,-156,37
1535,514,-224,16693,-226,-97,148
1536,888,1659,16253,122,-81,194
1537,1454,2052,16039,-128,-102,164
1538,896,1012,16383,-310,-96,177
1539,-94,1239,16282,-80,-84,168
1540,-33,1789,16145,-56,-125,118
1541,195,1084,16357,-285,-123,82
1542,-605,649,16266,-181,-106,103
1543,-1282,1586,16030,52,-115,33
1544,-519,1676,16072,-136,-178,-127
1545,520,783,16401,-365,-189,-182
1546,561,635,16488,-195,-161,-159
1547,908,1661,16273,28,-174,-144
1548,2090,1585,16333,-104,-208,-185
1549,2605,961,16405,-220,-133,-67
1550,1993,1073,16266,-125,-69,93
1551,1646,1493,16284,-165,-94,158
1552,1928,992,16397,-336,-117,183
1553,1109,289,16647,-274,-60,298
1554,-489,915,16322,81,-5,337
1555,-1159,2371,15839,241,-54,228
1556,-882,2270,16002,-155,-139,110
1557,-933,1084,16217,-422,-132,63
1558,-1321,726,16249,-226,-139,-40
1559,-497,1533,16181,-44,-187,-156
1560,1058,1542,16272,-314,-196,-223
1561,1448,281,16504,-441,-201,-187
1562,1260,481,16547,-80,-161,-117
1563,1770,1480,16331,123,-160,-64
1564,2371,1918,16267,46,-116,7
1565,1530,2352,16106,-17,-52,97
1566,418,2802,15647,-225,-105,52
1567,597,501,16551,-758,-194,-33
1568,1080,-1807,17231,-616,-144,104
1569,729,274,16442,201,-24,250
1570,337,2904,15729,317,-36,270
1571,632,2156,15992,-359,-147,137
1572,459,-243,16822,-539,-131,90
1573,-586,414,16470,77,-56,160
1574,-1052,2773,15727,367,-69,113
1575,-405,2641,15861,-205,-166,-25
1576,-32,414,16457,-614,-183,-119
1577,-222,55,16539,-260,-146,-113
1578,516,1774,16178,110,-153,-133
1579,2039,1704,16281,-203,-209,-198
1580,2304,421,16618,-337,-192,-140
1581,1560,1048,16394,85,-93,64
1582,1279,2569,15936,212,-90,127
1583,1505,2845,15876,-215,-156,55
1584,674,674,16536,-697,-168,40
1585,-383,-899,16846,-427,-115,149
1586,-163,1146,16294,202,-82,166
1587,554,2254,15927,-21,-83,140
1588,466,1068,16243,-393,-93,104
1589,55,608,16510,-228,-88,79
1590,458,1580,16256,-19,-118,50
1591,824,1430,16279,-202,-120,45
1592,56,923,16308,-198,-122,75
1593,-453,1562,16132,1,-129,24
1594,236,1853,16161,-163,-180,-83
1595,947,801,16398,-384,-189,-106
1596,703,697,16432,-145,-97,-79
1597,683,1938,16119,59,-129,-70
1598,1670,1896,16185,-185,-179,-127
1599,1940,688,16484,-412,-147,-67
1600,1035,140,16491,-240,-96,65
1601,587,1012,16353,-7,-126,122
1602,1068,1119,16358,-126,-147,139
1603,936,798,16445,-185,-81,176
1604,-174,1381,16240,3,-26,221
1605,-346,2316,16024,23,-102,153
1606,114,1906,16140,-261,-127,49
1607,62,909,16359,-342,-109,34
1608,-469,1244,16277,-116,-95,30
1609,-27,1786,16135,-141,-170,-47
1610,839,1009,16373,-361,-198,-102
1611,763,337,16537,-276,-145,-70
1612,583,1324,16275,48,-113,-25
1613,1175,2303,16173,-23,-152,-48
1614,1824,1727,16222,-290,-153,-66
1615,1326,1078,16334,-299,-111,-13
1616,638,914,16248,-230,-100,15
1617,1189,543,16436,-284,-153,27
1618,1519,-248,16745,-325,-110,104
1619,675,119,16458,-52,-51,237
1620,-148,1756,16069,215,-41,249
1621,0,2073,16089,-41,-94,153
1622,116,1040,16428,-295,-125,97
1623,-736,1382,16320,-9,-87,87
1624,-946,2844,15757,126,-88,-2
1625,-53,2366,15953,-335,-186,-137
1626,596,226,16628,-607,-217,-165
1627,551,266,16580,-191,-138,-89
1628,1151,1685,16220,61,-141,-75
1629,2207,1444,16294,-172,-192,-100
1630,2061,761,16487,-217,-139,-18
1631,1172,1697,16225,54,-66,109
1632,784,2918,15818,-5,-87,85
1633,860,1446,16216,-576,-206,-21
1634,452,-1156,16951,-656,-136,108
1635,-86,-13,16474,7,-58,228
1636,519,2210,15909,187,-54,191
1637,1281,1523,16202,-366,-130,114
1638,529,-107,16610,-417,-123,105
1639,-525,893,16375,68,-90,109
1640,-410,2002,16009,108,-118,64
1641,166,1600,16173,-210,-140,4
1642,-303,929,16394,-250,-107,1
1643,-292,1876,16103,12,-178,-14
1644,868,2187,16132,-154,-198,-123
1645,1657,1201,16391,-379,-193,-160
1646,1383,795,16425,-212,-137,-104
1647,1158,1384,16359,-35,-134,-52
1648,1612,1630,16254,-125,-149,-19
1649,1244,1314,16308,-218,-126,25
1650,73,1064,16244,-185,-98,128
1651,-49,965,16316,-185,-132,133
1652,861,986,16465,-245,-150,104
1653,1124,799,16416,-224,-89,130
1654,497,1354,16210,-68,-65,178
1655,480,1782,16066,-115,-82,125
1656,849,985,16429,-370,-151,54
1657,115,-218,16705,-333,-122,98
1658,-963,887,16215,133,-75,131
1659,-901,2403,15811,169,-96,23
1660,148,1652,16173,-309,-195,-80
1661,435,531,16598,-353,-177,-108
1662,426,1516,16257,25,-147,-134
1663,1415,2183,16113,-53,-190,-157
1664,2311,1062,16442,-301,-190,-170
1665,2049,743,16493,-150,-100,9
1666,1154,2021,16119,77,-53,141
1667,909,2346,15981,-217,-122,64
1668,608,-218,16761,-608,-174,57
1669,-321,-519,16719,-144,-67,198
1670,-513,1996,15951,329,-45,182
1671,506,2829,15897,-110,-106,92
1672,1196,850,16424,-578,-152,28
1673,647,272,16599,-245,-92,96
1674,306,1873,16059,83,-81,90
1675,829,1545,16132,-245,-155,26
1676,548,56,16617,-429,-158,39
1677,-440,228,16455,-61,-77,98
1678,-468,1889,16027,178,-114,46
1679,618,2022,16109,-138,-165,-61
1680,994,992,16471,-326,-157,-106
1681,558,1390,16334,-50,-149,-94
1682,935,2564,16029,77,-168,-90
1683,1605,2125,16048,-284,-163,-115
1684,1353,253,16491,-559,-126,-47
1685,619,-308,16687,-264,-132,53
1686,784,740,16375,-5,-109,127
1687,1256,1194,16317,-83,-94,156
1688,522,857,16304,-162,-75,167
1689,-245,1396,16237,-5,-97,175
1690,208,2295,16155,-20,-131,112
1691,648,1958,16163,-232,-138,41
1692,122,1076,16332,-317,-96,80
1693,-322,1433,16129,-134,-107,49
1694,463,1502,16200,-240,-146,-40
1695,975,472,16586,-375,-159,-97
1696,422,299,16421,-165,-115,-25
1697,226,1685,16129,105,-143,5
1698,1115,1928,16252,-98,-177,-70
1699,1596,1305,16388,-237,-150,-52
1700,832,1550,16178,-77,-94,33
1701,627,1771,15957,-168,-112,27
1702,1117,379,16479,-477,-173,-2
1703,1108,-754,16821,-340,-127,71
1704,272,557,16324,139,-37,194
1705,93,2065,15972,95,-84,180
1706,627,1488,16307,-274,-139,102
1707,317,604,16541,-234,-111,103
1708,-311,2089,16063,152,-99,119
1709,64,3156,15761,-15,-106,34
1710,846,1586,16257,-508,-163,-101
1711,712,-108,16731,-451,-150,-82
1712,231,960,16299,13,-99,-4
1713,950,2130,16053,-17,-143,15
1714,1600,1029,16469,-388,-178,-14
1715,831,432,16584,-195,-111,19
1716,29,2181,16062,244,-105,43
1717,186,2886,15719,-54,-133,-37
1718,779,586,16408,-664,-182,-79
1719,653,-1228,16985,-519,-136,18
1720,736,561,16392,139,-110,135
1721,1628,1940,16023,59,-111,135
1722,1736,959,16378,-348,-125,153
1723,502,286,16538,-225,-78,195
1724,-517,1425,16281,126,-53,145
1725,-375,2220,15925,4,-109,33
1726,-420,1256,16202,-258,-143,17
1727,-824,1225,16197,-108,-132,-31
1728,-184,2284,16014,4,-145,-80
1729,1365,2082,16311,-328,-194,-143
1730,1923,646,16587,-434,-167,-161
1731,1304,989,16400,-35,-142,-51
1732,1352,2389,16010,123,-121,13
1733,1822,2238,16085,-288,-137,-2
1734,933,475,16452,-590,-147,47
1735,-158,-629,16717,-376,-155,125
1736,33,540,16429,53,-119,151
1737,884,1617,16094,-16,-90,167
1738,686,1103,16257,-252,-77,146
1739,40,1029,16285,-146,-120,107
1740,312,1455,16226,-108,-134,65
1741,581,1064,16368,-216,-144,20
1742,57,628,16355,-170,-105,66
1743,-445,1528,16238,68,-114,49
1744,287,2090,16083,-78,-150,-26
1745,1043,1083,16422,-359,-176,-102
1746,796,844,16439,-161,-132,-63
1747,783,2096,16136,110,-105,-72
1748,1608,2379,16141,-109,-178,-89
1749,1810,1426,16313,-338,-179,-43
1750,669,1053,16297,-238,-108,67
1751,-27,1117,16224,-175,-120,70
1752,578,404,16500,-333,-170,70
1753,622,-76,16657,-217,-125,117
1754,30,1245,16187,92,-68,152
1755,75,2176,15953,-29,-105,101
1756,1032,1200,16394,-411,-171,10
1757,1131,306,16637,-304,-106,57
1758,222,1477,16160,51,-56,108
1759,262,2115,15955,-72,-106,72
1760,669,904,16340,-406,-148,15
1761,395,-180,16670,-320,-111,30
1762,-68,1268,16309,170,-75,54
1763,447,2843,15859,117,-145,-4
1764,1301,1687,16300,-367,-161,-81
1765,950,643,16595,-294,-124,-38
1766,450,1957,16112,139,-89,10
1767,840,2885,15891,-57,-148,-18
1768,950,785,16386,-602,-193,-77
1769,230,-884,16812,-450,-154,-4
1770,-152,167,16443,52,-118,110
1771,911,1688,16104,41,-125,69
1772,1620,694,16431,-369,-148,67
1773,1035,312,16656,-150,-82,135
1774,563,2137,16146,225,-52,170
1775,820,2915,15911,-25,-123,115
1776,672,1240,16326,-485,-144,45
1777,-437,532,16535,-219,-109,69
1778,-742,1962,15987,122,-83,52
1779,10,2251,15974,-176,-142,-69
1780,503,660,16461,-487,-184,-91
1781,277,621,16494,-141,-144,-58
1782,657,2108,16112,84,-154,-101
1783,1724,1866,16103,-294,-184,-146
1784,1772,-86,16640,-551,-166,-79
1785,1228,-363,16632,-208,-106,49
1786,1363,978,16338,56,-125,138
1787,1639,1009,16371,-147,-114,179
1788,745,365,16488,-177,-70,239
1789,-670,1136,16231,134,-42,241
1790,-655,2398,16000,180,-95,139
1791,-158,2240,16026,-170,-125,32
1792,-430,1373,16217,-270,-108,-12
1793,-567,1821,16130,-101,-131,-61
1794,412,2175,16055,-201,-203,-133
1795,1637,1195,16440,-457,-197,-136
1796,1526,382,16646,-318,-152,-48
1797,1204,1398,16219,50,-136,15
1798,1616,2248,16036,-42,-158,19
1799,1564,1398,16230,-363,-142,49
1800,507,230,16459,-360,-103,94
1801,-293,495,16474,-77,-100,89
1802,158,1012,16209,-81,-122,76
1803,505,460,16449,-242,-118,118
1804,87,463,16355,-124,-70,142
1805,253,1597,16170,55,-93,90
1806,987,1678,16287,-155,-153,14
1807,926,798,16419,-282,-129,22
1808,-13,1139,16255,-50,-72,39
1809,-71,2037,16009,16,-105,3
1810,741,1457,16348,-285,-160,-75
1811,781,716,16511,-250,-140,-25
1812,389,1685,16188,78,-90,34
1813,700,2622,15908,5,-135,0
1814,1446,1769,16289,-339,-210,-55
1815,1069,559,16592,-334,-144,-17
1816,89,1698,16164,82,-92,11
1817,3,2828,15757,-9,-158,-38
1818,489,732,16278,-620,-227,-82
1819,617,-1205,16952,-591,-136,36
1820,712,149,16610,47,-55,113
1821,1604,2072,16033,137,-116,104
1822,2124,1206,16309,-339,-162,77
1823,1019,405,16442,-335,-66,156
1824,-50,765,16380,-45,-77,172
1825,-167,1216,16419,-12,-131,93
1826,-329,1247,16255,-40,-113,122
1827,-1056,1558,16063,6,-69,115
1828,-960,2306,15875,18,-128,-11
1829,413,2045,16175,-262,-202,-155
1830,1304,1214,16506,-376,-206,-191
1831,1198,1149,16382,-134,-149,-162
1832,1347,1964,16150,20,-183,-147
1833,2152,1775,16170,-251,-182,-86
1834,2071,576,16433,-476,-128,24
1835,890,-240,16708,-386,-91,180
1836,529,365,16584,-56,-107,220
1837,770,1506,16197,46,-111,190
1838,311,1207,16164,-183,-46,185
1839,-479,1113,16337,-109,-46,149
1840,-326,1886,16149,-16,-113,80
1841,342,1753,16210,-227,-144,23
1842,50,686,16325,-332,-105,45
1843,-370,1014,16226,-66,-86,20
1844,294,1831,16219,-67,-142,-58
1845,1161,1359,16355,-271,-179,-93
1846,991,730,16475,-222,-126,-63
1847,636,1789,16199,85,-133,-48
1848,1406,2438,16115,-49,-141,-58
1849,1800,1963,16174,-256,-151,-73
1850,919,940,16197,-394,-127,8
1851,204,183,16482,-358,-133,52
1852,593,-200,16628,-263,-164,52
1853,905,18,16532,-91,-93,118
1854,103,984,16245,101,-43,159
1855,-208,1829,15944,21,-88,97
1856,473,1487,16383,-193,-145,48
1857,793,1092,16538,-196,-103,84
1858,268,2229,16028,66,-82,84
1859,127,2728,15863,-107,-130,19
1860,686,1410,16300,-475,-179,-106
1861,595,-95,16712,-428,-155,-72
1862,99,910,16331,34,-131,-1
1863,701,2286,16055,52,-120,-13
1864,1613,1714,16296,-263,-159,-72
1865,1407,904,16423,-277,-119,-31
1866,657,1510,16113,-62,-102,32
1867,932,1384,16192,-237,-138,24
1868,1428,-76,16676,-482,-142,59
1869,706,-509,16645,-190,-95,161
1870,-276,976,16191,166,-70,204
1871,-167,1762,15986,17,-110,130
1872,312,926,16391,-262,-112,74
1873,-225,849,16479,-52,-90,71
1874,-508,2431,15893,178,-85,27
1875,425,2811,15919,-127,-163,-96
1876,1287,1131,16457,-511,-175,-132
1877,1100,598,16538,-263,-127,-50
1878,1002,1773,16316,85,-147,-1
1879,1680,2323,16012,-106,-143,-14
1880,1600,1405,16394,-333,-121,47
1881,347,1348,16255,-169,-111,94
1882,-271,1639,16011,-157,-125,65
1883,149,741,16399,-423,-167,-17
1884,451,-679,16689,-461,-146,14
1885,176,-360,16565,-85,-109,86
1886,730,1331,16147,136,-94,108
1887,1695,1393,16266,-165,-123,69
1888,1146,660,16525,-227,-111,76
1889,-121,1275,16275,54,-83,134
1890,-478,2467,15926,96,-105,63
1891,5,1870,16147,-271,-164,-38
1892,-112,525,16476,-374,-162,-69
1893,-259,1227,16280,-44,-108,-76
1894,831,2433,16063,-8,-157,-99
1895,1984,1430,16391,-333,-195,-137
1896,1954,765,16604,-174,-145,-59
1897,1184,2267,16156,215,-65,82
1898,1135,3449,15552,-63,-98,55
1899,1194,1196,16279,-774,-213,-51
1900,272,-1982,17156,-812,-155,127
1901,-183,-676,16677,105,-44,220
1902,396,2339,15920,362,-74,168
1903,649,1653,15990,-281,-117,117
1904,-160,-152,16702,-403,-103,68
1905,-569,738,16388,51,-88,52
1906,212,2486,15965,135,-133,-7
1907,558,1678,16154,-323,-156,-46
1908,-6,574,16497,-305,-169,-70
1909,150,1541,16265,21,-134,-65
1910,1400,2156,16191,-60,-159,-100
1911,1880,1442,16341,-241,-140,-86
1912,1202,1542,16335,-75,-92,-22
1913,1191,2291,16021,-36,-139,-12
1914,1752,1573,16187,-371,-164,-11
1915,1485,-386,16763,-587,-100,88
1916,424,-413,16700,-127,-69,208
1917,8,1274,16189,192,-99,218
1918,46,1320,16176,-97,-95,146
1919,-630,667,16320,-247,-98,138
1920,-1202,942,16181,-43,-110,105
1921,-475,2211,16138,63,-139,10
1922,719,2338,15968,-227,-148,-41
1923,955,1212,16319,-435,-159,-91
1924,818,759,16479,-259,-159,-116
1925,1638,1244,16418,-93,-183,-115
1926,2166,1298,16458,-153,-147,-42
1927,1400,1403,16268,-92,-79,95
1928,630,2321,16101,33,-83,147
1929,781,2215,16145,-211,-135,104
1930,766,1092,16306,-424,-141,66
1931,-196,229,16474,-335,-110,93
1932,-543,524,16226,-142,-127,46
1933,83,359,16354,-230,-162,-35
1934,425,-514,16614,-295,-140,17
1935,2,223,16427,80,-105,88
1936,-21,1924,16089,196,-130,49
1937,998,2212,16172,-70,-180,-6
1938,1260,1567,16370,-217,-127,2
1939,845,2190,16035,4,-52,13
1940,1050,2694,16012,-98,-155,-57
1941,1704,1581,16352,-475,-222,-107
1942,1386,137,16751,-429,-133,-7
1943,377,1175,16335,51,-82,97
1944,311,2504,15891,74,-105,117
1945,508,1528,16240,-349,-162,71
1946,-186,41,16505,-379,-135,96
1947,-870,773,16247,-27,-115,43
1948,-335,1904,15897,-29,-160,-67
1949,1011,889,16311,-465,-191,-72
1950,1249,-615,16829,-471,-145,-1
1951,1036,491,16437,71,-79,88
1952,1446,1992,16099,151,-108,94
1953,1530,1510,16250,-197,-111,120
1954,575,1168,16308,-192,-90,159
1955,-304,1485,16245,-50,-94,78
1956,31,1612,16128,-153,-178,-46
1957,404,665,16477,-315,-169,-60
1958,311,1025,16360,-58,-107,20
1959,625,2460,15983,101,-89,-3
1960,1483,2371,16138,-226,-156,-77
1961,1394,875,16481,-441,-154,-29
1962,108,817,16398,-91,-86,58
1963,-504,2042,15972,76,-125,42
1964,149,1605,16077,-300,-191,-41
1965,517,-92,16615,-508,-157,1
1966,674,218,16573,-128,-115,95
1967,1222,1723,16169,114,-92,108
1968,2065,1770,16216,-153,-164,38
1969,1650,1070,16305,-303,-100,89
1970,250,1197,16207,-189,-80,138
1971,-172,991,16310,-201,-150,81
1972,-114,285,16410,-265,-136,48
1973,-398,33,16493,-162,-103,71
1974,-692,1260,16244,173,-106,20
1975,196,2851,15821,128,-127,-77
1976,1290,1738,16263,-360,-183,-162
1977,1205,529,16698,-313,-143,-137
1978,967,1768,16307,159,-127,-50
1979,1377,3238,15886,112,-107,21
1980,1599,2350,15915,-448,-180,-28
1981,691,-139,16717,-716,-149,75
1982,94,-603,16717,-276,-132,147
1983,639,1169,16307,139,-127,124
1984,784,1528,16101,-110,-105,92
1985,102,675,16327,-263,-99,89
1986,-125,1082,16302,-102,-108,100
1987,729,1582,16259,-127,-156,58
1988,1089,836,16408,-302,-116,69
1989,158,967,16394,-66,-65,94
1990,-140,2088,16010,58,-117,23
1991,472,1814,16115,-202,-183,-79
1992,692,528,16561,-381,-139,-81
1993,302,913,16445,-72,-103,-33
1994,734,2307,16144,103,-141,-36
1995,1543,2389,16094,-133,-168,-38
1996,1274,1437,16156,-368,-138,-41
1997,490,457,16338,-379,-97,39
1998,538,175,16608,-241,-166,19
1999,961,78,16548,-186,-155,55
2000,490,597,16418,-16,-67,184
2001,-169,1553,16023,66,-57,181
2002,271,1838,16143,-109,-137,86
2003,906,1285,16456,-274,-131,45
2004,477,1341,16233,-99,-104,55
2005,-66,2268,15977,-5,-106,14
2006,553,1945,16064,-287,-183,-75
2007,1281,338,16664,-546,-145,-70
2008,855,122,16680,-196,-87,27
2009,628,2004,16043,149,-100,72
2010,1049,2186,16067,-93,-158,17
2011,1140,1060,16489,-309,-161,25
2012,158,1330,16244,-30,-97,40
2013,-530,2372,15818,-14,-124,4
2014,79,1140,16114,-470,-194,-83
2015,526,-1181,16903,-604,-170,-25
2016,433,-681,16761,-60,-64,76
2017,946,1807,16095,285,-108,115
2018,1823,1965,16084,-132,-132,47
2019,1543,888,16544,-287,-100,25
2020,338,1301,16320,24,-93,119
2021,170,2704,15903,111,-106,95
2022,706,2178,16151,-319,-143,23
2023,360,715,16500,-458,-131,19
2024,-240,976,16339,-118,-113,57
2025,172,1945,16024,-28,-161,-14
2026,1047,1252,16311,-344,-189,-83
2027,793,261,16631,-304,-158,-56
2028,198,1514,16134,122,-139,11
2029,613,2355,15938,-52,-161,-17
2030,1194,925,16348,-475,-167,-25
2031,857,-239,16680,-376,-106,53
2032,426,771,16450,42,-92,132
2033,974,2016,15950,-3,-122,101
2034,1055,962,16354,-349,-119,68
2035,116,288,16467,-238,-99,107
2036,-400,1322,16165,91,-94,74
2037,264,2077,16122,-51,-168,-18
2038,710,903,16399,-335,-147,-23
2039,187,871,16408,-93,-98,22
2040,300,2228,16050,94,-118,-5
2041,1374,2126,16193,-222,-155,-65
2042,1607,937,16557,-379,-158,-63
2043,832,1328,16292,-54,-103,23
2044,528,2209,15958,-29,-111,34
2045,1160,1007,16401,-452,-150,2
2046,828,-583,16777,-418,-124,56
2047,-194,426,16340,55,-99,138
2048,-184,1814,16013,99,-110,105
2049,540,1344,16185,-260,-130,31
2050,491,429,16539,-295,-113,36
2051,40,1508,16285,54,-87,48
2052,590,2653,15885,-14,-97,13
2053,1239,1391,16310,-432,-138,-41
2054,815,94,16607,-377,-132,-4
2055,181,902,16325,39,-113,37
2056,642,2068,16111,21,-155,2
2057,1163,1215,16352,-294,-162,12
2058,573,713,16501,-173,-113,57
2059,56,1974,16086,122,-107,40
2060,789,2498,15950,-89,-150,-10
2061,1109,1147,16480,-457,-173,-33
2062,338,175,16507,-303,-122,10
2063,-44,949,16283,-38,-128,17
2064,901,1186,16313,-183,-139,35
2065,1513,552,16469,-323,-124,75
2066,756,837,16396,-53,-89,142
2067,492,2149,16051,88,-81,122
2068,848,2057,16117,-216,-122,42
2069,794,674,16504,-382,-107,43
2070,-23,788,16419,-76,-101,87
2071,-114,2160,16052,87,-97,72
2072,660,1745,16182,-272,-163,-3
2073,703,178,16571,-414,-165,-2
2074,185,663,16353,-12,-103,45
2075,361,2079,16035,60,-123,-1
2076,1001,1194,16299,-344,-192,-55
2077,657,-44,16644,-325,-152,-23
2078,-35,986,16259,102,-100,37
2079,570,2195,16018,45,-123,50
2080,1439,1458,16362,-321,-156,12
2081,1087,822,16420,-242,-106,54
2082,410,1915,16112,80,-64,59
2083,818,2298,16008,-134,-145,26
2084,1297,973,16395,-459,-167,12
2085,501,217,16600,-301,-82,63
2086,-57,1327,16198,62,-108,85
2087,401,1925,16083,-66,-152,44
2088,771,827,16426,-374,-113,31
2089,198,428,16493,-189,-107,86
2090,-132,1784,16161,95,-105,43
2091,543,2080,16051,-157,-168,-38
2092,738,557,16482,-424,-163,-53
2093,300,409,16458,-167,-99,23
2094,452,1715,16149,62,-123,35
2095,1273,1671,16212,-204,-169,-25
2096,1302,432,16515,-350,-127,-13
2097,519,814,16419,-19,-91,62
2098,610,2162,16017,75,-101,54
2099,1332,1751,16214,-267,-146,3
2100,995,488,16494,-360,-120,35
2101,98,1241,16268,-9,-89,130
2102,68,2311,15944,32,-128,93
2103,638,1419,16281,-328,-136,22
2104,191,210,16603,-321,-107,35
2105,-437,1243,16155,44,-101,26
2106,83,2165,15992,-49,-133,-39
2107,963,999,16398,-439,-174,-73
2108,1052,155,16599,-311,-141,-14
2109,812,1365,16345,61,-103,36
2110,1427,2191,15970,-84,-138,12
2111,1695,885,16411,-409,-147,36
2112,780,244,16553,-252,-92,91
2113,22,1291,16220,53,-101,145
2114,321,1795,16154,-63,-148,89
2115,376,817,16374,-299,-129,55
2116,-336,718,16334,-104,-60,77
2117,-369,2049,15995,102,-83,36
2118,705,2153,16129,-196,-168,-59
2119,1084,833,16495,-438,-159,-60
2120,621,796,16430,-129,-99,11
2121,675,2019,16013,48,-125,21
2122,1500,1638,16225,-300,-158,-24
2123,1458,314,16600,-399,-147,46
2124,476,719,16361,-64,-82,115
2125,227,1953,16050,39,-122,89
2126,650,1371,16246,-288,-162,31
2127,462,211,16566,-356,-126,61
2128,-171,996,16344,43,-86,66
2129,137,2271,15972,50,-121,11
2130,927,1362,16269,-368,-158,-27
2131,633,304,16528,-297,-133,-3
2132,183,1210,16216,83,-100,27
2133,625,2166,16073,-36,-143,-19
2134,1185,985,16402,-405,-183,-45
2135,727,162,16630,-250,-123,18
2136,249,1526,16148,123,-80,62
2137,1034,2248,15989,-103,-127,31
2138,1395,1072,16472,-410,-140,36
2139,605,497,16524,-196,-99,80
2140,-57,1907,16080,83,-92,77
2141,457,2034,16070,-180,-124,10
2142,810,688,16494,-453,-134,8
2143,120,393,16511,-153,-108,64
2144,45,1856,16062,85,-121,37
2145,841,1848,16128,-236,-163,-7
2146,1152,320,16581,-465,-155,0
2147,574,535,16514,-97,-105,45
2148,494,1892,16075,72,-97,56
2149,1103,1630,16184,-226,-161,30
2150,817,273,16590,-378,-107,41
2151,25,850,16340,-7,-62,110
2152,76,2185,16051,84,-97,69
2153,658,1624,16181,-299,-156,-30
2154,412,364,16559,-372,-149,-6
2155,-146,1128,16293,7,-109,25
2156,522,2276,15951,24,-129,-9
2157,1498,1402,16382,-383,-167,-29
2158,1223,313,16580,-333,-134,17
2159,547,1386,16267,57,-106,64
2160,836,2191,16009,-60,-128,47
2161,1245,1044,16389,-396,-139,20
2162,414,162,16644,-263,-93,95
2163,-235,1378,16113,83,-115,103
2164,217,2069,16037,-68,-156,49
2165,713,844,16420,-386,-136,19
2166,318,358,16485,-205,-111,36
2167,89,1641,16155,65,-102,15
2168,833,2047,16055,-145,-144,-39
2169,1105,544,16515,-431,-151,-35
2170,451,429,16471,-147,-101,55
2171,421,1858,16118,99,-113,54
2172,1100,1968,16089,-211,-166,11
2173,1108,570,16505,-375,-154,19
2174,230,764,16337,-65,-85,69
2175,203,2123,15984,89,-80,53
2176,992,1816,16245,-272,-145,10
2177,834,450,16531,-403,-135,38
2178,103,951,16333,-57,-88,89
2179,263,2162,15981,10,-114,70
2180,1086,1531,16212,-334,-151,7
2181,791,224,16606,-383,-135,13
2182,43,1055,16271,-14,-118,71
2183,293,2022,16020,-10,-128,33
2184,1007,1079,16328,-354,-160,-16
2185,752,194,16567,-288,-123,33
2186,167,1248,16318,75,-82,79
2187,685,2222,15950,-17,-118,21
2188,1098,1004,16407,-380,-163,-17
2189,435,353,16512,-237,-133,36
2190,70,1527,16172,122,-114,51
2191,734,2197,16122,-82,-150,0
2192,1124,827,16437,-407,-151,-19
2193,476,466,16492,-192,-100,55
2194,219,1843,16078,99,-82,75
2195,983,2066,16069,-164,-121,-11
2196,1052,710,16481,-415,-147,15
2197,289,552,16459,-139,-86,88
2198,27,1940,16072,92,-123,78
2199,834,1818,16148,-220,-143,-8
2200,862,412,16590,-435,-151,2
2201,157,711,16360,-90,-108,49
2202,286,2016,16022,62,-120,26
2203,999,1504,16220,-281,-186,-14
2204,990,156,16610,-379,-134,-13
2205,346,872,16455,5,-68,66
2206,549,2133,16000,46,-117,63
2207,1133,1309,16334,-301,-155,8
2208,660,331,16569,-292,-134,32
2209,21,1188,16246,44,-95,63
2210,357,2243,16086,-20,-94,20
2211,889,1145,16337,-368,-134,-22
2212,358,408,16518,-274,-135,35
2213,-39,1558,16130,70,-87,71
2214,793,2168,16049,-91,-130,3
2215,1272,986,16462,-412,-160,-15
2216,620,373,16501,-230,-117,48
2217,167,1673,16126,80,-89,56
2218,882,1870,16098,-168,-143,3
2219,1230,657,16492,-438,-141,-10
2220,454,446,16483,-147,-96,71
2221,180,1845,16077,90,-102,77
2222,710,1810,16091,-234,-148,10
2223,880,395,16535,-397,-143,13
2224,182,648,16430,-85,-88,62
2225,98,2036,16037,84,-103,66
2226,852,1719,16198,-250,-167,-8
2227,804,361,16519,-376,-160,-10
2228,210,881,16288,-8,-101,63
2229,501,2144,16078,71,-142,34
2230,1180,1536,16257,-302,-156,-34
2231,908,360,16565,-348,-115,28
2232,178,1084,16257,23,-89,74
2233,584,2179,16004,16,-132,65
2234,1233,1340,16343,-344,-161,-5
2235,701,338,16524,-281,-114,50
2236,-10,1360,16207,44,-94,74
2237,402,2041,16016,-63,-137,39
2238,1009,989,16407,-372,-167,5
2239,442,214,16569,-250,-130,34
2240,-17,1527,16103,99,-113,67
2241,523,1981,16018,-82,-146,11
2242,1026,700,16492,-418,-127,-22
2243,487,426,16472,-187,-100,46
2244,132,1781,16151,103,-100,48
2245,819,2032,16069,-154,-149,-20
2246,997,578,16529,-421,-151,-2
2247,404,582,16435,-100,-106,67
2248,377,1953,16113,78,-100,52
2249,1060,1832,16142,-265,-167,-6
2250,1068,479,16568,-405,-129,15
2251,200,796,16428,-77,-89,63
2252,267,2102,15991,51,-97,60
2253,1029,1616,16245,-290,-154,-1
2254,802,371,16537,-369,-139,23
2255,64,996,16319,-31,-111,74
2256,201,2137,15928,6,-135,45
2257,1016,1336,16264,-363,-167,-39
2258,770,148,16652,-350,-116,8
2259,146,1164,16232,35,-127,43
2260,437,2131,16006,-36,-137,22
2261,1102,1085,16360,-394,-146,-11
2262,772,198,16560,-284,-101,38
2263,165,1421,16316,79,-90,83
2264,637,2254,15977,-66,-149,31
2265,1049,908,16432,-403,-153,1
2266,454,337,16567,-228,-106,56
2267,105,1639,16129,96,-92,69
2268,744,2139,16115,-126,-137,14
2269,1034,746,16457,-409,-171,-11
2270,324,457,16457,-172,-93,50
2271,106,1888,16050,89,-83,62
2272,840,1964,16127,-200,-158,-8
2273,1038,576,16515,-439,-166,1
2274,343,500,16469,-117,-110,48
2275,143,1961,16017,88,-95,34
2276,1009,1753,16185,-254,-158,-1
2277,1051,304,16629,-421,-146,10
2278,239,716,16388,-61,-94,67
2279,226,2078,15993,78,-135,48
2280,918,1561,16191,-290,-185,-17
2281,878,213,16604,-376,-123,17
2282,184,956,16353,14,-76,68
2283,372,2258,15959,24,-119,49
2284,1023,1363,16303,-354,-154,-17
2285,644,254,16612,-330,-113,24
2286,141,1170,16213,71,-76,75
2287,556,2261,16033,-12,-122,22
2288,1112,1139,16275,-405,-139,-18
2289,672,265,16626,-274,-114,51
2290,90,1471,16183,66,-74,70
2291,703,2196,16015,-94,-145,23
2292,1155,903,16460,-412,-164,-5
2293,549,290,16541,-216,-125,39
2294,62,1715,16130,91,-110,74
2295,699,2004,16102,-142,-130,21
2296,1129,632,16528,-435,-168,3
2297,370,379,16510,-157,-114,42
2298,83,1911,16005,84,-109,38
2299,727,1948,16034,-222,-167,3
2300,988,420,16538,-414,-164,-12
2301,312,594,16468,-82,-94,77
2302,220,2125,16053,109,-99,60
2303,979,1825,16154,-234,-179,-19
2304,919,299,16534,-397,-162,0
2305,251,776,16397,-37,-77,75
2306,360,2212,16026,86,-109,53
2307,1031,1604,16188,-308,-155,-19
2308,852,223,16624,-397,-149,6
2309,114,954,16304,-2,-84,80
2310,440,2237,15934,18,-121,52
2311,1113,1412,16331,-361,-142,-12
2312,758,125,16562,-349,-119,22
2313,69,1214,16223,45,-109,69
2314,410,2179,15982,-31,-118,28
2315,1081,1094,16318,-404,-165,-13
2316,645,140,16617,-314,-137,12
2317,55,1500,16131,101,-89,49
2318,534,2235,15982,-51,-145,26
2319,1096,837,16458,-422,-154,-4
2320,544,235,16592,-237,-103,52
2321,184,1674,16192,115,-84,76
2322,829,2260,15968,-129,-142,7
2323,1018,698,16450,-445,-138,14
2324,413,359,16530,-172,-85,89
2325,195,1906,16084,111,-110,86
2326,887,2104,16079,-195,-159,-9
2327,1026,477,16518,-465,-163,-2
2328,170,491,16457,-113,-106,69
2329,162,2060,16010,116,-105,66
2330,992,1841,16189,-231,-155,-2
2331,909,330,16540,-411,-130,3
2332,185,712,16397,-50,-116,48
2333,182,2142,15930,84,-114,45
2334,1005,1611,16208,-293,-156,0
2335,834,151,16658,-397,-133,21
2336,141,958,16271,16,-102,56
2337,361,2260,15979,43,-125,38
2338,1031,1390,16254,-356,-160,-7
2339,874,205,16632,-350,-136,20
2340,231,1203,16372,51,-87,72
2341,563,2325,15935,-6,-126,24
2342,1090,1189,16284,-383,-165,4
2343,607,230,16624,-305,-115,44
2344,105,1337,16251,78,-86,88
2345,618,2299,16044,-62,-129,36
2346,1102,953,16399,-440,-155,-12
2347,412,222,16559,-263,-98,36
2348,24,1573,16131,97,-133,63
2349,788,2136,16028,-94,-134,12
2350,1134,691,16483,-434,-132,-15
2351,456,284,16542,-187,-115,26
2352,136,1832,16074,133,-84,51
2353,865,1979,16136,-196,-138,15
2354,1141,479,16541,-446,-160,-1
2355,305,506,16428,-117,-91,59
2356,190,2045,16063,92,-109,51
2357,802,1831,16118,-262,-163,-9
2358,927,330,16570,-397,-153,-8
2359,267,775,16472,-32,-97,69
2360,254,2243,15953,70,-115,65
2361,920,1667,16190,-289,-160,-4
2362,789,231,16617,-391,-136,11
2363,229,917,16291,-15,-83,58
2364,439,2274,16065,50,-112,64
2365,1079,1375,16228,-354,-163,13
2366,714,210,16626,-362,-116,20
2367,85,1087,16266,32,-87,85
2368,546,2244,15990,24,-115,47
2369,1140,1222,16343,-374,-165,9
2370,715,155,16587,-306,-131,40
2371,23,1397,16167,100,-80,61
2372,567,2151,16015,-53,-119,39
2373,1147,979,16408,-424,-162,14
2374,523,240,16589,-264,-99,51
2375,85,1644,16147,129,-91,68
2376,607,2142,16059,-99,-160,17
2377,1096,729,16517,-419,-153,-3
2378,473,327,16528,-180,-104,67
2379,128,1820,16106,121,-97,57
2380,825,2128,16030,-151,-122,-11
2381,987,552,16487,-455,-149,8
2382,353,474,16473,-130,-97,62
2383,303,1954,16134,99,-110,74
2384,959,1890,16124,-220,-150,12
2385,992,352,16520,-442,-143,15
2386,186,632,16383,-106,-124,87
2387,270,2077,15995,74,-120,66
2388,1044,1708,16254,-270,-171,-6
2389,833,271,16549,-387,-146,12
2390,96,867,16361,-15,-114,76
2391,272,2193,15946,62,-96,46
2392,1079,1474,16248,-343,-134,-8
2393,788,211,16654,-356,-116,34
2394,115,1194,16225,64,-89,90
2395,413,2207,15916,-6,-117,25
2396,1052,1213,16294,-380,-176,-13
2397,743,207,16596,-309,-139,28
2398,145,1390,16287,82,-124,61
2399,671,2290,15940,-60,-132,25
2400,1091,938,16411,-393,-151,9
2401,523,279,16549,-232,-108,48
2402,151,1564,16132,75,-96,54
2403,695,2165,16026,-105,-150,23
2404,1000,725,16456,-406,-163,8
2405,298,356,16478,-196,-102,49
2406,71,1807,16001,96,-118,69
2407,843,1967,16108,-186,-150,-9
2408,1052,570,16504,-435,-154,9
2409,315,487,16473,-137,-111,81
2410,173,2012,15977,130,-108,44
2411,941,1841,16162,-258,-131,-10
2412,999,365,16620,-417,-139,5
2413,274,754,16382,-23,-102,56
2414,222,2169,16015,98,-108,59
2415,954,1658,16197,-273,-153,8
2416,907,262,16613,-390,-115,17
2417,176,893,16386,-40,-76,68
2418,357,2270,15916,48,-157,43
2419,966,1482,16220,-321,-178,-15
2420,657,212,16617,-357,-120,15
2421,151,1018,16340,43,-99,66
2422,478,2274,16028,-9,-142,24
2423,1121,1250,16278,-393,-182,-15
2424,587,194,16622,-313,-107,37
2425,51,1270,16241,82,-86,66
2426,654,2181,15984,-23,-144,15
2427,1142,1027,16418,-396,-151,-17
2428,599,253,16560,-246,-87,60
2429,24,1573,16133,114,-94,68
2430,712,2105,16063,-101,-151,27
2431,1168,811,16474,-415,-166,-16
2432,472,410,16511,-188,-99,51
2433,151,1842,16112,112,-104,81
2434,712,2008,16060,-160,-142,4
2435,1027,574,16495,-420,-146,-12
2436,388,494,16530,-115,-103,53
2437,197,1987,16015,82,-112,41
2438,834,1931,16092,-251,-152,-12
2439,911,373,16575,-418,-155,2
2440,297,599,16407,-64,-94,56
2441,333,2080,16068,92,-114,64
2442,1026,1687,16152,-273,-166,-14
2443,855,277,16576,-395,-170,21
2444,116,843,16318,-5,-92,78
2445,377,2184,15967,51,-129,41
2446,1069,1489,16314,-337,-166,-13
2447,778,232,16541,-358,-150,8
2448,80,1155,16267,37,-84,79
2449,415,2191,15992,-5,-125,45
2450,1166,1263,16300,-371,-160,-16
2451,683,241,16627,-307,-101,41
2452,104,1408,16233,78,-89,81
2453,517,2203,15974,-46,-143,29
2454,1118,980,16425,-408,-158,14
2455,649,275,16577,-250,-106,59
2456,90,1608,16143,60,-70,69
2457,711,2161,16050,-121,-140,5
2458,1012,713,16450,-397,-150,16
2459,430,400,16428,-180,-89,49
2460,176,1785,16162,104,-103,47
2461,835,2020,16099,-186,-143,13
2462,1010,503,16538,-421,-141,4
2463,244,488,16440,-125,-82,60
2464,184,2006,15997,88,-100,63
2465,909,1805,16185,-242,-135,5
2466,977,377,16546,-410,-157,6
2467,255,746,16401,-66,-115,64
2468,214,2139,15976,77,-110,46
2469,1046,1666,16227,-281,-159,-12
2470,901,252,16680,-372,-135,9
2471,184,964,16267,19,-110,65
2472,311,2197,15974,38,-131,47
2473,1055,1388,16256,-346,-181,-17
2474,862,245,16606,-343,-132,25
2475,127,1194,16311,31,-90,78
2476,489,2240,15994,-26,-130,38
2477,1026,1110,16315,-380,-150,-12
2478,630,228,16563,-300,-116,35
2479,134,1341,16280,75,-79,61
2480,657,2287,16019,-35,-121,13
2481,1062,974,16364,-384,-163,-3
2482,424,201,16546,-244,-130,46
2483,82,1599,16150,102,-94,77
2484,781,2196,16059,-103,-141,5
2485,1074,800,16447,-404,-161,-2
2486,430,324,16535,-175,-125,50
2487,103,1849,16029,103,-100,57
2488,903,1983,16112,-186,-121,-2
2489,1112,582,16580,-442,-126,-6
2490,377,545,16398,-135,-107,77
2491,175,2048,16036,104,-120,51
2492,821,1805,16140,-233,-151,-19
2493,987,362,16550,-400,-140,-15
2494,250,714,16489,-41,-84,63
2495,255,2129,15996,62,-110,53
2496,938,1591,16244,-310,-150,8
2497,828,251,16628,-371,-132,20
2498,170,966,16281,30,-93,84
2499,396,2205,16049,25,-144,38
2500,1061,1347,16222,-323,-163,-8
2501,700,227,16549,-319,-121,29
2502,119,1186,16247,45,-86,57
2503,573,2254,16001,-26,-125,35
2504,1181,1219,16359,-406,-140,-14
2505,652,205,16594,-280,-135,47
2506,13,1450,16182,99,-87,86
2507,607,2153,16013,-65,-112,20
2508,1157,937,16466,-405,-154,-10
2509,473,279,16531,-242,-110,56
2510,82,1733,16141,104,-104,51
2511,673,2058,16027,-126,-144,12
2512,1096,648,16482,-418,-162,2
2513,464,415,16535,-161,-105,53
2514,152,1876,16050,100,-98,27
2515,800,1957,16086,-202,-139,-20
2516,928,457,16491,-446,-128,7
2517,293,593,16427,-107,-72,57
2518,268,2033,16075,75,-100,46
2519,949,1765,16129,-247,-161,1
2520,894,334,16560,-380,-123,7
2521,167,779,16415,-26,-87,53
2522,378,2146,15964,67,-121,50
2523,1092,1573,16271,-302,-177,18
2524,831,265,16559,-357,-141,30
2525,79,1124,16282,21,-99,67
2526,419,2191,15994,-4,-101,45
2527,1153,1324,16327,-364,-145,2
2528,717,239,16621,-298,-138,35
2529,93,1369,16217,71,-110,58
2530,432,2187,15953,-44,-141,18
2531,1071,998,16391,-403,-145,-14
2532,693,246,16590,-264,-102,51
2533,107,1549,16142,88,-100,73
2534,675,2188,15985,-96,-155,-5
2535,1014,786,16413,-419,-148,-19
2536,484,266,16514,-205,-90,48
2537,196,1752,16191,99,-89,72
2538,802,2073,16045,-154,-174,3
2539,1033,657,16464,-416,-157,-14
2540,235,433,16447,-131,-97,74
2541,179,1910,16029,101,-117,50
2542,976,1907,16184,-228,-157,13
2543,991,489,16521,-437,-135,17
2544,240,689,16441,-78,-102,58
2545,243,2069,15985,88,-122,63
2546,1031,1674,16178,-282,-151,6
2547,929,294,16620,-413,-126,8
2548,154,958,16295,3,-95,53
2549,303,2133,15986,46,-95,56
2550,1011,1400,16239,-342,-154,-3
2551,786,232,16584,-347,-124,17
2552,110,1185,16345,32,-86,93
2553,475,2269,15993,-15,-138,58
2554,1016,1104,16342,-392,-167,6
2555,620,248,16601,-276,-99,43
2556,154,1339,16237,81,-85,65
2557,668,2256,15997,-66,-152,17
2558,1095,939,16408,-393,-160,-10
2559,409,262,16535,-230,-84,43
2560,86,1654,16072,86,-88,80
2561,827,2072,16103,-125,-140,3
2562,1074,761,16442,-402,-154,-18
2563,388,444,16505,-147,-101,54
2564,119,1913,16033,124,-104,63
2565,879,1949,16125,-199,-122,4
2566,1068,544,16547,-407,-135,-11
2567,298,564,16431,-76,-97,65
2568,185,2090,16035,127,-117,55
2569,847,1761,16173,-267,-168,-14
2570,951,271,16581,-422,-155,-6
2571,238,806,16413,-15,-77,76
2572,314,2168,15958,92,-100,58
2573,931,1508,16246,-310,-189,7
2574,730,200,16616,-399,-134,17
2575,166,1015,16291,6,-67,67
2576,493,2240,16034,9,-99,64
2577,1108,1294,16296,-359,-183,-9
2578,652,182,16595,-320,-124,17
2579,99,1301,16243,81,-85,68
2580,615,2191,16001,-39,-115,24
2581,1128,1091,16382,-387,-154,-4
2582,552,282,16593,-253,-121,57
2583,5,1587,16108,95,-120,79
2584,652,2114,16096,-107,-127,-13
2585,1126,869,16498,-421,-140,-20
2586,413,369,16481,-184,-96,44
2587,106,1812,16051,85,-114,64
2588,727,1953,16061,-184,-139,6
2589,1114,591,16496,-445,-159,-18
2590,428,499,16496,-146,-104,67
2591,226,1945,16040,76,-106,77
2592,909,1834,16167,-215,-152,-3
2593,871,406,16550,-421,-132,4
2594,261,710,16415,-65,-87,66
2595,372,2086,16067,40,-114,53
2596,1018,1641,16153,-294,-164,-4
2597,788,326,16577,-354,-155,8
2598,90,986,16325,16,-106,70
2599,446,2203,15956,27,-126,51
2600,1121,1408,16307,-368,-171,-27
2601,772,240,16584,-352,-127,19
2602,35,1319,16207,48,-90,75
2603,451,2168,15980,-33,-113,20
2604,1182,1089,16362,-375,-155,-1
2605,618,249,16590,-261,-127,48
2606,26,1555,16152,86,-78,72
2607,538,2130,16001,-87,-123,0
2608,1069,843,16434,-426,-175,-8
2609,524,285,16553,-228,-118,54
2610,138,1728,16167,79,-104,63
2611,832,2118,16010,-154,-162,16
2612,1035,622,16451,-426,-151,0
2613,377,410,16479,-146,-115,78
2614,226,1924,16091,108,-130,75
2615,890,1962,16067,-204,-164,3
2616,931,492,16516,-427,-163,-18
2617,151,696,16354,-94,-109,67
2618,305,2029,15982,100,-97,62
2619,1062,1695,16235,-262,-180,-24
2620,872,384,16525,-378,-157,6
2621,182,939,16346,-15,-100,63
2622,347,2133,16006,36,-132,60
2623,1135,1419,16257,-345,-140,9
2624,843,307,16615,-347,-114,42
2625,91,1240,16220,27,-84,79
2626,373,2101,15992,-22,-136,42
2627,979,1164,16326,-344,-165,-5
2628,675,282,16580,-271,-124,45
2629,112,1399,16301,108,-105,54
2630,601,2210,15936,-71,-139,12
2631,1041,865,16446,-416,-151,-5
2632,516,318,16510,-241,-94,42
2633,143,1617,16109,87,-84,67
2634,782,2133,16081,-141,-136,5
2635,1098,720,16425,-415,-166,-2
2636,356,462,16513,-151,-93,57
2637,140,1873,16077,94,-89,73
2638,910,1957,16092,-208,-165,-2
2639,1007,560,16488,-426,-147,7
2640,258,572,16481,-91,-98,74
2641,131,2060,16021,80,-100,67
2642,994,1765,16184,-271,-149,3
2643,967,323,16608,-408,-129,13
2644,214,792,16365,-37,-97,76
2645,299,2143,16058,63,-125,49
2646,946,1483,16268,-320,-164,4
2647,834,249,16546,-385,-132,33
2648,144,1029,16346,20,-86,71
2649,442,2188,15986,9,-135,44
2650,1013,1237,16289,-356,-177,-7
2651,585,262,16579,-319,-111,25
2652,147,1214,16243,39,-96,78
2653,628,2232,16094,-30,-133,19
2654,1163,1004,16389,-386,-149,-24
2655,518,317,16569,-265,-121,44
2656,96,1526,16164,66,-93,66
2657,794,2092,16075,-114,-138,43
2658,1115,848,16446,-394,-162,16
2659,427,375,16481,-171,-117,57
2660,31,1817,16061,112,-117,54
2661,783,1967,16088,-193,-151,-12
2662,1101,620,16569,-423,-169,-17
2663,300,587,16478,-132,-127,46
2664,152,2002,16031,74,-108,40
2665,867,1719,16123,-274,-159,-18
2666,937,392,16597,-385,-112,10
2667,247,816,16460,-40,-73,62
2668,378,2116,16024,46,-133,56
2669,995,1525,16292,-299,-177,8
2670,751,276,16576,-337,-136,25
2671,161,1033,16234,10,-87,99
2672,486,2213,16068,-22,-135,70
2673,1055,1339,16253,-344,-166,3
2674,636,279,16580,-280,-132,12
2675,40,1293,16205,63,-113,66
2676,614,2129,15989,-32,-152,33
2677,1130,1041,16429,-367,-148,-1
2678,557,283,16511,-247,-121,66
2679,64,1575,16134,85,-87,63
2680,637,2041,16098,-91,-139,-11
2681,1141,775,16491,-400,-154,2
2682,444,339,16541,-183,-109,59
2683,134,1865,16081,115,-100,42
2684,730,1953,16059,-168,-154,-2
2685,1070,518,16490,-443,-173,4
2686,393,547,16507,-134,-100,88
2687,216,2048,16068,74,-98,63
2688,914,1816,16112,-229,-155,-10
2689,878,373,16542,-386,-152,17
2690,167,709,16341,-51,-93,74
2691,330,2096,16039,48,-117,42
2692,1029,1626,16252,-314,-169,-4
2693,807,308,16565,-384,-158,11
2694,79,964,16275,-3,-92,64
2695,443,2155,16005,13,-117,38
2696,1154,1379,16351,-324,-168,-2
2697,715,230,16553,-308,-113,31
2698,58,1293,16167,47,-84,73
2699,465,2190,15952,-39,-145,26
2700,1182,1080,16370,-389,-158,2
2701,629,243,16630,-263,-116,52
2702,86,1577,16090,73,-102,70
2703,599,2058,16025,-121,-148,-2
2704,1038,777,16444,-415,-136,-13
2705,520,374,16503,-175,-80,68
2706,162,1750,16162,105,-90,82
2707,797,2033,16050,-166,-175,5
2708,996,580,16475,-394,-153,-3
2709,323,436,16479,-122,-85,61
2710,255,1972,16032,118,-108,65
2711,967,1888,16148,-236,-171,0
2712,966,386,16556,-436,-153,22
2713,132,688,16432,-99,-109,68
2714,266,2173,16016,70,-105,57
2715,1098,1616,16274,-294,-165,-1
2716,842,257,16572,-368,-147,13
2717,97,997,16342,-5,-107,67
2718,333,2197,15967,46,-127,43
2719,1119,1403,16278,-340,-161,-2
2720,814,196,16612,-320,-128,50
2721,111,1263,16212,72,-97,72
2722,441,2222,15950,0,-133,13
2723,1021,1027,16334,-363,-172,-2
2724,638,240,16580,-269,-119,46
2725,127,1477,16259,98,-90,81
2726,653,2264,15981,-90,-144,5
2727,1044,833,16471,-432,-166,-16
2728,441,344,16538,-198,-123,54
2729,161,1737,16077,100,-86,74
2730,860,2060,16146,-129,-141,-4
2731,1105,695,16435,-397,-159,18
2732,320,508,16464,-139,-115,73
2733,83,1884,16085,96,-98,55
2734,876,1784,16171,-226,-169,-11
2735,923,450,16547,-389,-180,14
2736,218,675,16388,-81,-107,72
2737,218,2103,15986,89,-124,38
2738,1055,1623,16289,-292,-162,-9
2739,1047,294,16612,-374,-132,27
2740,271,921,16330,-14,-73,61
2741,379,2156,16007,35,-133,34
2742,972,1377,16187,-330,-171,-18
2743,716,233,16573,-362,-124,36
2744,53,1164,16306,37,-93,73
2745,437,2304,15969,-5,-137,27
2746,995,1198,16324,-384,-156,-18
2747,526,254,16529,-295,-113,39
2748,116,1393,16201,87,-103,87
2749,787,2229,16081,-46,-142,39
2750,1248,882,16443,-419,-169,3
2751,577,266,16577,-227,-123,35
2752,129,1720,16111,104,-82,70
2753,767,2017,16091,-147,-122,16
2754,1018,657,16534,-417,-131,8
2755,261,411,16447,-148,-116,71
2756,-11,1919,16050,116,-107,81
2757,782,1910,16122,-215,-131,20
2758,1094,422,16581,-464,-151,20
2759,347,597,16478,-96,-81,59
2760,300,2126,15985,93,-117,66
2761,916,1722,16172,-262,-185,2
2762,927,250,16611,-401,-158,3
2763,192,834,16390,-18,-105,81
2764,317,2307,16015,68,-119,55
2765,1020,1613,16200,-314,-161,-16
2766,652,190,16561,-378,-138,13
2767,90,984,16273,30,-98,72
2768,566,2249,16009,23,-121,20
2769,1195,1296,16291,-358,-154,-30
2770,753,176,16595,-302,-128,49
2771,73,1351,16204,78,-77,86
2772,630,2188,16035,-56,-116,44
2773,1092,996,16461,-411,-181,6
2774,421,293,16498,-241,-124,41
2775,-69,1678,16123,90,-91,60
2776,600,2112,15982,-152,-127,-11
2777,1095,660,16515,-437,-146,-27
2778,495,310,16550,-150,-99,64
2779,254,1949,16002,109,-97,82
2780,891,2026,16049,-193,-150,1
2781,1040,399,16545,-447,-128,4
2782,398,518,16476,-80,-106,90
2783,263,2056,16052,95,-108,77
2784,967,1819,16129,-243,-155,9
2785,833,234,16580,-395,-135,14
2786,116,749,16392,-30,-89,78
2787,244,2246,15993,65,-109,60
2788,958,1624,16274,-327,-155,-17
2789,687,216,16584,-383,-140,10
2790,-33,1020,16313,20,-104,76
2791,440,2327,15959,20,-125,21
2792,1246,1404,16302,-406,-174,-24
2793,865,199,16593,-315,-118,12
2794,243,1446,16203,70,-105,41
2795,585,2359,15952,-38,-137,17
2796,1184,988,16419,-430,-125,4
2797,643,48,16650,-288,-94,46
2798,190,1322,16168,64,-86,81
2799,827,1890,16057,-137,-152,49
2800,1192,474,16540,-432,-143,30
2801,501,202,16547,-121,-75,107
2802,-80,1932,16125,194,-94,95
2803,249,2288,15927,-114,-169,-5
2804,261,661,16455,-415,-160,-35
2805,-333,561,16414,-110,-112,23
2806,-53,2180,15997,119,-111,-4
2807,1136,2272,16150,-217,-170,-74
2808,1567,864,16505,-417,-148,-118
2809,1000,884,16391,-129,-114,-20
2810,1109,1872,16079,-40,-117,34
2811,1880,1183,16335,-366,-147,44
2812,1412,-189,16746,-400,-107,137
2813,354,622,16402,12,-70,233
2814,106,2082,15962,120,-99,205
2815,343,1504,16231,-265,-113,118
2816,-208,381,16488,-315,-99,94
2817,-1024,1172,16173,39,-107,38
2818,-496,2209,15951,0,-157,-58
2819,322,1202,16267,-388,-167,-101
2820,475,103,16598,-369,-151,-83
2821,540,1068,16388,35,-131,-52
2822,1442,2075,16130,1,-146,-90
2823,2008,1328,16434,-256,-185,-91
2824,1247,1072,16408,-143,-105,11
2825,819,2030,16140,24,-89,61
2826,1292,2149,16167,-235,-143,29
2827,1358,725,16485,-472,-150,90
2828,453,488,16510,-156,-69,204
2829,-29,1839,16021,54,-50,193
2830,534,1595,16159,-277,-108,110
2831,458,116,16666,-437,-147,58
2832,-403,463,16364,-58,-100,101
2833,-449,1959,16005,124,-89,73
2834,340,1716,16180,-236,-142,-9
2835,416,363,16536,-379,-159,-27
2836,-232,980,16309,-32,-130,-28
2837,110,2157,15945,11,-133,-101
2838,1042,1316,16296,-334,-188,-155
2839,1201,201,16595,-350,-143,-129
2840,1015,1009,16348,34,-112,-34
2841,1560,2001,16163,19,-143,-20
2842,2266,1187,16356,-316,-151,13
2843,1708,610,16497,-231,-69,134
2844,876,1633,16189,48,-34,239
2845,860,2350,16060,-76,-74,209
2846,579,1099,16362,-407,-126,172
2847,-554,467,16492,-200,-69,238
2848,-1403,1770,15966,125,-60,173
2849,-759,2093,16008,-91,-150,9
2850,-272,854,16405,-453,-149,-63
2851,-653,15,16421,-316,-143,-83
2852,-469,1220,16232,55,-162,-180
2853,916,1809,16140,-113,-195,-210
2854,2082,584,16610,-391,-196,-164
2855,1874,338,16724,-84,-159,-73
2856,1914,1658,16211,259,-83,49
2857,2501,2269,15986,67,-89,80
2858,2221,1957,15971,-327,-124,63
2859,1208,1077,16286,-571,-128,112
2860,582,-554,17051,-521,-106,226
2861,434,-166,16782,5,-84,290
2862,-521,1979,16033,372,-20,337
2863,-1539,2980,15614,202,-45,234
2864,-1302,2535,15899,-211,-160,31
2865,-673,1212,16342,-500,-171,-51
2866,-716,569,16326,-310,-132,-140
2867,-788,1305,16110,-38,-164,-207
2868,566,1617,16141,-230,-208,-237
2869,2196,70,16751,-550,-254,-240
2870,2296,-680,16932,-194,-198,-138
2871,2100,1039,16429,421,-102,54
2872,2320,2484,15978,419,-49,179
2873,2423,2993,15715,-40,-94,101
2874,1380,2602,15783,-504,-158,38
2875,492,666,16562,-865,-178,78
2876,454,-1845,17392,-660,-107,218
2877,96,167,16547,301,-15,307
2878,-901,3232,15470,530,19,335
2879,-1191,2980,15652,-170,-96,123
2880,-580,930,16427,-635,-204,-59
2881,-329,-351,16753,-420,-156,-62
2882,-783,1165,16198,193,-127,-109
2883,-109,2867,15656,91,-137,-116
2884,1240,1494,16309,-510,-252,-194
2885,1757,-475,16903,-542,-231,-169
2886,1468,391,16625,87,-138,-35
2887,1818,2163,16097,305,-108,9
2888,2449,2227,15995,-94,-130,-14
2889,1950,1618,16158,-347,-129,2
2890,885,1027,16321,-420,-94,103
2891,622,145,16671,-388,-151,116
2892,836,37,16693,-131,-88,212
2893,99,1268,16209,160,-18,346
2894,-858,2577,15778,139,-42,256
2895,-510,2243,16054,-250,-146,60
2896,-154,780,16486,-431,-139,-11
2897,-495,703,16310,-188,-98,-10
2898,-584,1753,16089,-14,-132,-74
2899,357,1666,16176,-293,-202,-118
2900,1025,274,16584,-472,-201,-114
2901,720,387,16494,-113,-128,-42
2902,982,1840,16169,152,-138,-39
2903,1994,1854,16253,-122,-209,-110
2904,2165,1060,16391,-277,-155,-65
2905,1430,1141,16345,-124,-84,42
2906,1136,1847,16050,-88,-89,88
2907,1556,1021,16366,-423,-149,74
2908,1046,-562,16924,-439,-112,191
2909,-152,503,16429,124,-31,323
2910,-561,2519,15881,301,-38,245
2911,-217,2323,15999,-157,-103,108
2912,-371,882,16356,-393,-109,72
2913,-1044,1357,16221,-49,-118,40
2914,-514,2412,15934,-41,-168,-95
2915,429,1450,16166,-432,-189,-153
2916,517,140,16537,-444,-183,-132
2917,476,708,16448,-76,-170,-74
2918,1399,1525,16305,-80,-201,-97
2919,2304,667,16466,-332,-217,-101
2920,1802,503,16503,-102,-135,1
2921,1394,1736,16165,148,-90,53
2922,1770,2306,16036,-88,-128,57
2923,1647,1202,16341,-489,-141,91
2924,548,-306,16815,-398,-96,160
2925,-301,868,16371,93,-57,241
2926,71,2271,15948,114,-91,229
2927,44,1768,16167,-252,-96,168
2928,-843,1041,16204,-236,-82,118
2929,-979,1653,16122,-33,-116,10
2930,-87,1724,16112,-181,-182,-101
2931,435,787,16337,-404,-152,-124
2932,110,885,16418,-165,-132,-98
2933,566,1756,16124,-64,-191,-69
2934,1671,1238,16379,-302,-217,-94
2935,1739,446,16592,-304,-157,-30
2936,1304,1106,16252,8,-120,22
2937,1547,2015,16174,1,-122,1
2938,1960,1314,16235,-330,-114,6
2939,1192,252,16512,-369,-90,108
2940,258,401,16457,-109,-89,193
2941,414,1387,16266,16,-79,192
2942,641,1377,16326,-145,-97,227
2943,-181,1096,16289,-99,-80,228
2944,-1106,1898,16018,102,-89,141
2945,-713,2344,15992,-81,-149,10
2946,-201,1400,16334,-420,-147,-80
2947,-555,556,16369,-300,-152,-104
2948,-486,1575,16117,5,-153,-116
2949,860,1872,16137,-189,-175,-137
2950,2050,506,16611,-463,-193,-151
2951,1957,114,16716,-148,-178,-82
2952,1865,1543,16284,240,-131,20
2953,2250,2253,16031,90,-116,38
2954,1920,2190,15877,-292,-135,-22
2955,876,787,16352,-623,-97,96
2956,403,-872,17045,-491,-119,184
2957,631,55,16680,77,-61,227
2958,187,1963,16029,263,-16,304
2959,-782,2398,15746,-18,-59,221
2960,-664,1653,16136,-317,-131,42
2961,37,563,16635,-388,-182,-57
2962,-68,538,16428,-107,-130,-40
2963,-568,1901,15968,123,-100,-23
2964,73,2423,15899,-127,-147,-77
2965,1078,972,16456,-480,-193,-118
2966,928,293,16640,-247,-173,-65
2967,601,1735,16140,122,-132,-62
2968,1274,1945,16060,-166,-184,-129
2969,2048,399,16674,-457,-209,-138
2970,1654,371,16667,-107,-103,3
2971,996,2161,16013,176,-55,99
2972,1363,2311,15930,-221,-149,79
2973,1428,212,16655,-581,-136,130
2974,552,-174,16693,-205,-47,257
2975,-23,1850,16128,205,-50,271
2976,347,2631,15874,-87,-115,167
2977,256,731,16420,-499,-126,90
2978,-666,-52,16563,-255,-90,104
2979,-860,1325,16212,125,-98,64
2980,-236,2152,16045,-35,-169,-19
2981,-123,1107,16180,-328,-162,-57
2982,-595,676,16317,-199,-146,-85
2983,-146,1655,16106,-3,-176,-156
2984,1332,1724,16273,-222,-198,-208
2985,1896,401,16631,-378,-215,-214
2986,1821,295,16582,-76,-175,-140
2987,2161,1292,16415,189,-105,0
2988,2573,1855,16167,85,-76,111
2989,2006,2324,15964,-55,-62,168
2990,734,2769,15868,-281,-59,215
2991,255,1314,16448,-671,-155,130
2992,79,-993,17122,-573,-128,228
2993,-582,633,16350,209,-24,249
2994,-1139,3097,15516,317,-36,186
2995,-388,2333,15857,-422,-165,-9
2996,424,-589,16887,-802,-220,-94
2997,127,-815,16793,-215,-109,-17
2998,-82,2009,15965,364,-79,-21
2999,731,2510,15881,-103,-174,-60
3000,1014,420,16557,-506,-194,-98
3001,442,83,16661,-124,-146,-29
3002,313,2316,15898,266,-131,-23
3003,1401,2221,16033,-204,-194,-135
3004,1969,190,16719,-515,-196,-143
3005,1235,336,16644,-55,-111,-4
3006,954,2331,16038,274,-84,57
3007,1417,2552,15908,-155,-116,49
3008,1276,710,16452,-556,-111,132
3009,214,349,16670,-195,-53,253
3010,7,2158,16029,175,-82,240
3011,451,2693,15849,-141,-119,139
3012,92,958,16346,-518,-117,50
3013,-519,205,16502,-315,-105,54
3014,-259,878,16381,-109,-121,1
3015,508,905,16280,-231,-138,-15
3016,177,316,16441,-234,-114,13
3017,-378,834,16253,2,-132,-10
3018,267,1664,16116,-21,-163,-83
3019,1065,1177,16360,-257,-176,-139
3020,1009,618,16516,-209,-163,-103
3021,942,1514,16230,75,-156,-78
3022,1852,1670,16355,-69,-177,-88
3023,2449,1166,16546,-203,-151,-38
3024,1473,1714,16185,-10,-58,120
3025,526,2760,15841,-28,-58,172
3026,485,1649,16287,-432,-165,90
3027,377,-173,16830,-486,-106,160
3028,-408,841,16377,65,-59,260
3029,-575,3109,15610,192,-93,186
3030,364,2304,15907,-449,-181,27
3031,793,-437,16770,-747,-171,-45
3032,425,-531,16670,-188,-106,33
3033,419,1632,16147,181,-98,50
3034,870,1522,16092,-221,-153,2
3035,474,-333,16705,-415,-169,22
3036,-480,231,16437,50,-122,78
3037,-294,2337,15855,316,-107,0
3038,686,2372,16098,-157,-193,-104
3039,908,717,16476,-428,-198,-151
3040,730,848,16536,-105,-139,-96
3041,1479,1943,16205,85,-139,-71
3042,2342,1965,16130,-147,-149,-56
3043,1766,1359,16224,-333,-130,85
3044,904,1217,16325,-251,-86,197
3045,780,1182,16419,-188,-100,203
3046,792,1215,16440,-154,-99,202
3047,-45,1438,16197,-69,-45,203
3048,-885,2161,15927,-26,-70,145
3049,-355,1819,16088,-304,-176,4
3050,225,141,16545,-515,-151,-42
3051,-68,-44,16493,-219,-75,2
3052,-154,1274,16185,47,-108,-10
3053,688,1362,16192,-198,-212,-107
3054,1123,1,16645,-383,-186,-87
3055,568,446,16414,14,-127,9
3056,688,2229,15989,192,-111,-5
3057,1621,2117,16205,-179,-150,-67
3058,1803,888,16446,-340,-174,-47
3059,1073,976,16370,-119,-99,41
3060,784,1923,16068,-10,-103,71
3061,1288,1244,16382,-336,-138,74
3062,822,229,16698,-322,-105,170
3063,-254,1383,16214,110,-52,240
3064,-381,2815,15845,115,-116,180
3065,243,1934,16141,-373,-157,74
3066,191,562,16488,-439,-107,19
3067,-253,1289,16269,-65,-89,8
3068,315,2096,15983,-126,-172,-41
3069,1036,633,16379,-524,-203,-80
3070,733,-503,16686,-387,-132,-25
3071,245,509,16403,97,-106,44
3072,835,1801,16139,70,-148,8
3073,1343,1012,16393,-263,-151,-23
3074,736,622,16529,-119,-114,33
3075,413,2092,16111,169,-120,50
3076,1032,2584,15976,-113,-118,-15
3077,1195,1152,16332,-479,-152,-53
3078,519,-18,16647,-318,-130,28
3079,245,1167,16252,52,-89,108
3080,1123,1861,16120,-110,-107,110
3081,1334,966,16458,-326,-107,98
3082,356,865,16404,-98,-72,173
3083,-138,2269,16035,104,-97,123
3084,211,2219,16006,-201,-151,20
3085,234,651,16424,-465,-145,-2
3086,-547,593,16421,-176,-93,21
3087,-399,1711,15999,4,-158,-24
3088,599,1263,16289,-339,-208,-86
3089,922,-94,16638,-418,-169,-99
3090,761,473,16407,-30,-141,-59
3091,1308,1754,16298,69,-178,-48
3092,2162,1209,16356,-189,-190,-70
3093,1704,844,16433,-155,-115,27
3094,859,1785,16177,25,-67,144
3095,934,2184,16083,-141,-102,157
3096,978,928,16506,-418,-128,143
3097,31,397,16522,-171,-73,165
3098,-939,1744,16029,149,-80,183
3099,-356,2383,15854,-78,-133,57
3100,315,1101,16382,-472,-156,-7
3101,-35,260,16544,-307,-144,-3
3102,-69,1660,16122,78,-115,-6
3103,799,2157,16040,-120,-138,-73
3104,1416,745,16453,-467,-148,-85
3105,917,120,16612,-254,-117,-9
3106,712,1367,16231,70,-113,18
3107,1309,1748,16182,-107,-154,-23
3108,1232,665,16494,-299,-145,-19
3109,404,788,16351,-79,-80,50
3110,226,1868,16139,37,-110,46
3111,917,1488,16172,-285,-161,37
3112,995,160,16624,-407,-136,82
3113,378,914,16344,12,-53,171
3114,542,2364,15932,92,-104,141
3115,1066,1817,16247,-321,-141,60
3116,491,347,16538,-366,-139,58
3117,-520,970,16253,17,-92,83
3118,-457,2231,15920,66,-120,45
3119,301,1648,16177,-320,-173,-32
3120,104,398,16497,-353,-164,-45
3121,-167,1100,16244,3,-138,-37
3122,720,1828,16129,-100,-170,-112
3123,1867,866,16438,-415,-198,-143
3124,1757,188,16677,-272,-156,-46
3125,1311,1435,16322,161,-110,47
3126,1606,2618,15894,54,-100,78
3127,1637,2105,16063,-350,-115,84
3128,594,408,16540,-526,-89,174
3129,-227,128,16642,-196,-86,206
3130,60,1526,16251,77,-108,165
3131,233,1574,16099,-168,-105,125
3132,-375,760,16250,-278,-98,102
3133,-365,957,16308,-120,-115,30
3134,542,1247,16379,-109,-170,-13
3135,686,1167,16308,-169,-144,-1
3136,-127,1274,16163,-86,-140,25
3137,-194,1725,16027,-78,-152,-17
3138,776,982,16339,-294,-214,-103
3139,1023,325,16628,-285,-151,-93
3140,707,1140,16225,-1,-84,-37
3141,1215,1879,16229,-18,-136,-49
3142,2224,1315,16443,-217,-192,-92
3143,2056,1207,16426,-101,-97,68
3144,960,2447,16025,90,-20,194
3145,759,3112,15731,-190,-116,121
3146,793,837,16516,-707,-189,103
3147,-13,-823,16855,-459,-120,195
3148,-758,975,16230,200,-59,225
3149,-362,2492,15805,39,-118,83
3150,356,737,16308,-556,-175,-12
3151,97,-796,16813,-433,-131,-1
3152,-31,720,16388,150,-104,8
3153,799,2286,15997,100,-115,-9
3154,1129,1337,16308,-324,-133,-35
3155,424,271,16560,-223,-123,-19
3156,-72,1600,16095,137,-133,17
3157,798,2256,16015,-59,-161,-78
3158,1406,922,16451,-407,-182,-108
3159,988,393,16580,-178,-118,-34
3160,918,1944,16232,170,-116,23
3161,1545,2608,16056,-13,-126,10
3162,1635,1909,16170,-315,-115,66
3163,492,1303,16365,-317,-95,153
3164,86,1414,16244,-216,-119,140
3165,474,1424,16275,-226,-146,128
3166,315,917,16363,-292,-112,143
3167,-215,867,16147,-187,-74,106
3168,-31,935,16277,-225,-134,20
3169,811,151,16497,-376,-182,-10
3170,631,-181,16578,-175,-116,34
3171,-82,1067,16165,140,-72,82
3172,160,1936,16033,9,-119,13
3173,670,956,16424,-326,-192,-57
3174,351,573,16511,-133,-157,-36
3175,-80,2106,16007,186,-116,-10
3176,818,2454,15960,-119,-168,-113
3177,1955,852,16593,-459,-173,-153
3178,1597,334,16662,-188,-121,-37
3179,1029,2231,16075,279,-83,83
3180,1097,3120,15737,-16,-86,103
3181,1295,1798,16248,-555,-159,57
3182,372,-126,16782,-537,-94,181
3183,-261,1083,16402,28,-103,199
3184,381,2522,15889,8,-124,130
3185,743,1352,16160,-480,-134,63
3186,164,-137,16539,-478,-112,73
3187,-25,223,16510,-149,-128,29
3188,606,825,16232,-103,-164,3
3189,552,350,16390,-197,-153,26
3190,-300,509,16350,-26,-111,65
3191,-298,1666,16047,144,-107,19
3192,579,1742,16254,-146,-174,-74
3193,808,1001,16377,-224,-170,-96
3194,472,1523,16286,10,-126,-72
3195,1041,2308,16052,20,-144,-95
3196,2169,1417,16380,-292,-197,-113
3197,1861,750,16549,-228,-108,-5
3198,738,2063,16076,96,-36,140
3199,388,2442,15960,-146,-114,107
3200,673,848,16486,-469,-164,98
3201,250,129,16588,-263,-81,172
3202,-320,1826,16062,149,-30,175
3203,408,2780,15786,-129,-107,113
3204,1076,997,16362,-601,-145,21
3205,632,-284,16670,-438,-111,37
3206,38,645,16358,3,-116,78
3207,263,1504,16117,-59,-129,6
3208,393,241,16491,-357,-130,-10
3209,-274,-25,16468,-92,-117,36
3210,-301,1804,16011,218,-146,22
3211,820,2464,16102,-63,-166,-89
3212,1481,1154,16418,-380,-156,-154
3213,1075,1091,16432,-114,-116,-85
3214,986,2202,15970,37,-111,-28
3215,1873,1452,16205,-340,-156,-35
3216,1802,-206,16798,-472,-120,86
3217,582,163,16552,-15,-59,201
3218,-12,2029,16076,243,-73,227
3219,253,2207,16061,-86,-116,129
3220,88,1041,16352,-308,-104,94
3221,-677,1556,16258,-32,-82,92
3222,-279,2902,15826,8,-111,25
3223,750,2021,16076,-462,-190,-69
3224,871,50,16624,-637,-158,-58
3225,426,62,16543,-196,-125,-13
3226,699,1233,16268,-26,-159,-38
3227,1291,581,16433,-290,-189,-50
3228,811,25,16559,-180,-141,50
3229,324,1323,16249,151,-82,92
3230,885,2583,16060,42,-123,58
3231,1260,1840,16221,-277,-166,9
3232,535,857,16358,-294,-89,16
3233,-258,1306,16123,-61,-98,-4
3234,351,1229,16211,-199,-176,-17
3235,878,77,16658,-401,-127,17
3236,539,245,16490,-89,-90,105
3237,388,1974,16069,181,-89,125
3238,1209,2286,16092,-115,-143,40
3239,1541,1257,16394,-328,-116,41
3240,574,1473,16314,-82,-89,103
3241,13,2394,15885,-22,-101,72
3242,382,1649,16184,-348,-163,-11
3243,251,3,16630,-480,-157,16
3244,-380,313,16385,-107,-83,70
3245,-168,1795,16115,64,-105,5
3246,870,1416,16228,-284,-190,-92
3247,1054,119,16650,-365,-185,-85
3248,633,962,16380,31,-120,-37
3249,1076,2515,15924,93,-142,-29
3250,1837,1710,16192,-372,-169,-58
3251,1575,26,16632,-493,-136,68
3252,784,311,16510,-64,-74,197
3253,773,1878,16108,112,-84,181
3254,953,1556,16227,-224,-127,144
3255,-122,467,16437,-246,-95,132
3256,-1079,1272,16176,70,-98,103
3257,-808,2137,15959,29,-146,0
3258,50,1745,16208,-271,-157,-37
3259,-50,1145,16333,-289,-104,-30
3260,75,1809,16086,-94,-120,-93
3261,1297,1651,16252,-294,-206,-176
3262,2075,218,16622,-484,-199,-150
3263,1680,98,16508,-141,-94,-45
3264,1280,1656,16262,150,-85,44
3265,1577,2153,16013,-119,-141,58
3266,1240,748,16468,-399,-110,104
3267,109,243,16561,-207,-78,203
3268,-61,1516,16157,98,-81,204
3269,569,2122,16119,-115,-99,115
3270,515,1076,16283,-391,-97,77
3271,-252,631,16351,-225,-80,80
3272,-216,1401,16198,-28,-103,36
3273,579,1290,16302,-197,-164,-24
3274,341,633,16468,-236,-120,20
3275,-421,1356,16150,28,-94,37
3276,-155,2262,15885,-6,-154,-31
3277,835,1353,16271,-369,-196,-114
3278,1054,158,16611,-365,-161,-108
3279,820,1036,16406,-10,-142,-55
3280,1505,1940,16131,9,-163,-90
3281,2207,1068,16368,-281,-172,-62
3282,1724,788,16472,-210,-85,104
3283,809,2054,16200,84,-37,200
3284,666,2572,15955,-133,-115,148
3285,449,1045,16436,-456,-160,132
3286,-525,361,16430,-265,-82,173
3287,-800,1504,16027,5,-98,135
3288,233,1797,16168,-241,-171,42
3289,956,193,16481,-564,-143,-9
3290,541,-114,16640,-203,-102,46
3291,377,1467,16153,159,-108,76
3292,978,1776,16103,-113,-141,20
3293,627,611,16522,-301,-139,23
3294,-508,662,16309,-20,-106,52
3295,-710,2058,15929,147,-119,4
3296,309,1940,16132,-205,-183,-92
3297,1047,573,16555,-443,-144,-151
3298,1023,805,16563,-101,-122,-93
3299,1596,1879,16252,94,-162,-81
3300,2379,1845,16186,-63,-148,-15
3301,2184,1505,16220,-203,-80,81
3302,1357,1748,16126,-223,-58,210
3303,1109,1663,16310,-390,-115,231
3304,912,163,16726,-476,-120,245
3305,-356,109,16555,-90,-59,302
3306,-1422,1874,15903,232,-32,241
3307,-1168,2336,15824,-103,-125,84
3308,-583,728,16305,-554,-147,-14
3309,-734,-353,16588,-387,-135,-56
3310,-829,716,16314,109,-128,-164
3311,547,2240,16019,85,-150,-168
3312,1787,1196,16351,-415,-208,-185
3313,1687,8,16646,-305,-169,-147
3314,1665,969,16469,127,-177,-89
3315,2241,1742,16293,146,-135,-20
3316,2435,1890,16185,-8,-75,75
3317,1337,2399,16009,-38,-42,173
3318,669,2987,15755,-270,-134,133
3319,734,898,16588,-720,-202,85
3320,233,-1072,17097,-505,-86,199
3321,-716,1202,16140,307,18,255
3322,-828,3360,15558,216,-67,183
3323,77,1822,16011,-597,-176,9
3324,192,-711,16839,-714,-151,-8
3325,-124,-23,16587,-40,-94,22
3326,424,2099,15980,185,-92,-9
3327,1129,1439,16197,-334,-175,-61
3328,724,-358,16682,-432,-152,-35
3329,-46,446,16376,84,-112,19
3330,484,2126,16022,163,-128,-27
3331,1363,1672,16199,-243,-149,-75
3332,1150,641,16477,-269,-134,-54
3333,848,1444,16337,57,-125,10
3334,1325,2361,16048,67,-130,-7
3335,1717,2189,16077,-211,-102,-17
3336,872,1204,16338,-363,-105,72
3337,252,929,16411,-240,-119,141
3338,666,1363,16315,-127,-96,183
3339,759,1369,16238,-193,-74,170
3340,98,1184,16184,-194,-65,189
3341,-198,1501,16192,-175,-111,86
3342,422,1161,16259,-319,-163,6
3343,550,-4,16544,-396,-126,26
3344,-144,435,16357,-67,-81,83
3345,-175,1746,15994,78,-117,40
3346,553,1258,16317,-261,-190,-79
3347,572,163,16568,-296,-165,-65
3348,-30,1169,16223,81,-86,-38
3349,474,2332,15977,30,-128,-88
3350,1731,1499,16380,-329,-185,-139
3351,1777,439,16692,-277,-135,-77
3352,1160,1478,16256,127,-77,50
3353,1109,2815,15866,111,-84,96
3354,1338,2004,16060,-424,-157,28
3355,616,-110,16804,-562,-122,128
3356,-289,628,16491,13,-84,198
3357,118,2599,15895,150,-98,174
3358,670,1923,16045,-375,-142,79
3359,365,552,16459,-457,-107,87
3360,-21,944,16364,-149,-87,56
3361,587,1462,16190,-190,-138,-15
3362,800,417,16465,-381,-158,-11
3363,-67,29,16476,-219,-96,58
3364,-282,973,16212,61,-140,36
3365,572,1481,16251,-67,-169,-26
3366,939,952,16373,-224,-148,-35
3367,464,1180,16261,-48,-132,-32
3368,643,2030,16076,28,-155,-94
3369,1759,1796,16271,-206,-176,-95
3370,1874,899,16535,-333,-113,-25
3371,961,1138,16254,-104,-56,93
3372,538,1663,16183,-72,-108,130
3373,866,984,16459,-318,-120,117
3374,484,424,16561,-185,-97,172
3375,-487,1709,16092,121,-60,205
3376,-296,2863,15817,4,-127,96
3377,525,1765,16201,-426,-156,-12
3378,464,516,16495,-453,-125,-20
3379,128,1155,16284,-115,-126,7
3380,647,1677,16128,-166,-172,-15
3381,1121,324,16500,-464,-185,-53
3382,520,-438,16607,-258,-148,5
3383,133,931,16285,145,-118,22
3384,866,2063,16114,25,-139,-6
3385,1329,1263,16376,-302,-141,-33
3386,750,950,16394,-126,-109,3
3387,348,2132,15951,66,-112,17
3388,1011,1851,16114,-289,-138,-25
3389,1262,99,16647,-551,-170,-18
3390,516,-163,16616,-167,-83,124
3391,222,1788,16114,195,-79,180
3392,837,2237,16020,-101,-132,120
3393,914,982,16481,-375,-121,94
3394,6,1144,16415,-56,-68,128
3395,-122,2821,15822,135,-89,81
3396,458,2360,15995,-309,-148,-11
3397,443,353,16568,-565,-163,-17
3398,-168,305,16452,-178,-118,16
3399,103,1519,16194,-12,-120,-28
3400,1007,1018,16267,-305,-192,-62
3401,904,-95,16591,-337,-149,-47
3402,531,745,16395,34,-101,13
3403,1070,2124,16134,102,-121,-10
3404,1722,1896,16187,-231,-161,-33
3405,1347,863,16370,-342,-110,41
3406,760,937,16335,-159,-88,123
3407,1325,1185,16308,-152,-84,159
3408,1647,737,16536,-261,-100,204
3409,497,667,16441,-102,-45,236
3410,-695,1792,16109,147,-53,224
3411,-765,2280,16008,-1,-118,97
3412,-658,1597,16245,-245,-112,13
3413,-1257,1253,16198,-178,-119,-10
3414,-1312,2029,15927,-9,-180,-124
3415,42,2278,15973,-244,-233,-215
3416,1309,745,16491,-616,-237,-263
3417,1723,-308,16782,-412,-209,-214
3418,2199,369,16729,64,-184,-133
3419,2891,1328,16292,220,-108,0
3420,2525,1942,15934,92,-41,119
3421,1321,2415,15746,-230,-44,163
3422,1036,1212,16365,-702,-150,149
3423,946,-1608,17444,-703,-93,249
3424,80,-246,16693,255,-15,336
3425,-1175,3339,15466,649,12,298
3426,-1227,3548,15424,-85,-127,71
3427,-479,676,16506,-806,-223,-57
3428,-524,-964,16869,-508,-127,-35
3429,-811,1069,16305,316,-101,-130
3430,68,3522,15579,247,-126,-68
3431,1489,1987,16034,-521,-223,-150
3432,1579,-166,16889,-565,-183,-169
3433,1380,557,16606,9,-160,-96
3434,2018,2097,16159,209,-160,-58
3435,2280,1971,16038,-144,-107,14
3436,1592,1506,16057,-364,-113,45
3437,955,695,16523,-468,-90,149
3438,1072,-119,16820,-346,-104,205
3439,709,404,16584,-14,-47,296
3440,-549,1903,15902,208,-11,330
3441,-1068,2567,15731,37,-91,177
3442,-500,1463,16246,-420,-193,7
3443,-248,107,16547,-448,-151,-25
3444,-664,782,16302,-8,-106,-42
3445,-298,2265,15933,52,-126,-65
3446,1012,1481,16249,-389,-204,-130
3447,1299,-130,16760,-451,-177,-122
3448,792,694,16402,48,-120,-8
3449,980,2156,16006,156,-145,-40
3450,1809,1555,16242,-259,-178,-100
3451,1657,472,16667,-309,-142,-33
3452,858,1711,16339,119,-67,74
3453,904,2952,15787,20,-97,67
3454,1260,1566,16213,-506,-177,16
3455,732,-245,16771,-522,-112,136
3456,121,654,16492,7,-67,198
3457,524,2374,15968,68,-67,158
3458,804,1516,16189,-396,-144,118
3459,-61,61,16521,-425,-115,113
3460,-546,603,16373,-42,-115,67
3461,71,1525,16205,-20,-159,31
3462,324,1180,16214,-226,-135,21
3463,-292,561,16354,-234,-113,22
3464,-435,1267,16197,-8,-163,-28
3465,563,1703,16160,-103,-183,-118
3466,1111,1030,16385,-296,-145,-122
3467,769,822,16398,-140,-135,-83
3468,1066,1612,16237,15,-162,-85
3469,2122,1308,16451,-156,-186,-111
3470,2261,1034,16490,-165,-129,30
3471,1248,1943,16148,60,-51,157
3472,853,2833,15833,-74,-88,137
3473,971,1545,16327,-538,-162,94
3474,336,-281,16789,-511,-107,176
3475,-541,895,16312,120,-31,252
3476,-455,2894,15745,154,-63,170
3477,235,1721,16001,-499,-168,29
3478,25,-605,16749,-637,-164,-7
3479,-309,-24,16493,-62,-94,16
3480,340,1744,16033,130,-130,-18
3481,999,1264,16201,-272,-195,-44
3482,631,100,16606,-299,-162,-32
3483,90,1109,16289,88,-121,16
3484,801,2173,16139,33,-143,-50
3485,1501,1531,16286,-261,-163,-88
3486,1057,683,16393,-240,-133,-46
3487,786,1528,16307,20,-97,-13
3488,1285,2156,16098,-22,-141,-37
3489,1327,1563,16218,-277,-134,9
3490,423,723,16478,-290,-105,112
3491,86,1288,16316,-98,-98,159
3492,680,1850,16241,-113,-122,159
3493,833,1437,16283,-258,-125,149
3494,171,1443,16124,-216,-101,140
3495,6,1643,16176,-238,-117,61
3496,645,761,16382,-426,-185,-13
3497,494,-350,16617,-362,-128,24
3498,-166,517,16328,43,-74,96
3499,49,1550,16087,36,-117,40
3500,781,982,16426,-284,-175,-25
3501,553,320,16523,-196,-142,-40
3502,-29,1558,16152,156,-127,-61
3503,647,2523,15971,37,-159,-99
3504,1715,1449,16301,-382,-185,-119
3505,1551,204,16694,-353,-132,-32
3506,980,1501,16292,132,-65,59
3507,916,2796,15891,84,-110,62
3508,1022,1737,16211,-416,-163,27
3509,215,148,16672,-447,-119,128
3510,-351,1078,16303,10,-95,182
3511,468,2548,15995,15,-113,141
3512,1138,1675,16185,-395,-127,85
3513,774,657,16390,-395,-87,78
3514,454,1047,16374,-133,-107,63
3515,808,1042,16286,-232,-159,18
3516,563,-19,16544,-348,-137,64
3517,-519,54,16366,-79,-108,121
3518,-754,1150,16141,108,-119,37
3519,60,1440,16302,-85,-165,-60
3520,439,965,16297,-208,-173,-104
3521,202,1268,16253,-61,-124,-108
3522,808,1939,16234,-4,-135,-122
3523,2208,1365,16423,-226,-180,-169
3524,2323,569,16618,-211,-137,-41
3525,1429,1653,16162,149,-41,139
3526,1068,3030,15760,100,-57,148
3527,1215,2407,16085,-422,-170,77
3528,374,11,16824,-609,-125,137
3529,-709,578,16492,-16,-77,207
3530,-330,2866,15802,202,-95,154
3531,553,2234,15868,-363,-139,61
3532,576,258,16492,-625,-120,28
3533,373,42,16601,-261,-134,36
3534,1023,898,16348,-134,-124,12
3535,1215,520,16389,-257,-112,26
3536,86,-44,16475,-173,-108,99
3537,-596,870,16315,114,-97,92
3538,-136,1794,16088,53,-152,8
3539,96,1279,16216,-199,-168,-61
3540,-197,1020,16331,-108,-115,-97
3541,148,2191,16083,75,-143,-132
3542,1621,1887,16303,-239,-194,-180
3543,2290,705,16663,-329,-160,-157
3544,1510,1216,16314,42,-81,-12
3545,1107,2665,15904,117,-74,93
3546,1570,2142,16099,-421,-181,36
3547,1297,-149,16797,-662,-136,158
3548,236,268,16679,-35,-59,269
3549,-19,2758,15837,270,-60,222
3550,437,2652,15867,-251,-128,108
3551,75,376,16471,-624,-140,44
3552,-527,-215,16565,-279,-99,71
3553,-283,1097,16239,-7,-132,27
3554,376,1077,16152,-199,-147,-17
3555,-10,13,16454,-308,-143,-34
3556,-316,586,16367,10,-129,-40
3557,544,1908,16146,98,-156,-75
3558,1525,1740,16245,-207,-167,-122
3559,1446,726,16543,-229,-153,-96
3560,1163,1549,16322,100,-129,-62
3561,1908,2203,16121,36,-146,-6
3562,2149,2102,16074,-230,-118,50
3563,845,1340,16184,-399,-119,86
3564,-163,145,16672,-382,-148,123
3565,-25,364,16611,-76,-110,156
3566,294,1688,16129,100,-69,203
3567,-283,2231,15966,-25,-73,185
3568,-191,2135,15995,-248,-129,68
3569,844,1317,16400,-445,-165,-36
3570,1151,567,16552,-362,-128,0
3571,515,858,16206,-144,-91,56
3572,202,1322,16211,-133,-147,17
3573,565,431,16462,-341,-186,-19
3574,249,-310,16664,-221,-143,29
3575,-311,1036,16183,179,-90,61
3576,276,2544,15898,118,-130,-26
3577,1392,1754,16348,-337,-173,-134
3578,1464,598,16605,-310,-164,-71
3579,935,1746,16186,105,-122,-19
3580,1231,2581,15905,3,-129,-24
3581,1594,1311,16235,-503,-154,-18
3582,740,-632,16818,-501,-129,105
3583,-67,488,16472,70,-87,218
3584,203,2415,15913,188,-92,184
3585,800,1976,16107,-272,-112,96
3586,370,774,16524,-358,-85,74
3587,-71,1529,16203,-27,-53,76
3588,625,2275,16042,-110,-137,11
3589,895,872,16365,-435,-160,12
3590,123,166,16488,-273,-116,79
3591,-447,1007,16315,12,-112,51
3592,126,1458,16104,-59,-192,-37
3593,460,629,16401,-273,-172,-67
3594,133,765,16354,-108,-128,-74
3595,690,1819,16162,33,-125,-112
3596,1987,1653,16417,-172,-203,-123
3597,2277,963,16463,-218,-136,-54
3598,1289,1742,16106,29,-46,92
3599,844,2786,15715,-66,-126,81
3600,1107,659,16592,-659,-190,42
3601,581,-1366,17128,-492,-122,184
3602,-272,834,16248,298,-52,278
3603,-168,3233,15661,287,-105,235
3604,646,2222,16071,-411,-126,86
3605,480,330,16607,-515,-124,26
3606,-235,1095,16361,5,-110,22
